Timestamp,Roll,Pitch,Yaw,Gyro_X,Gyro_Y,Gyro_Z,Accel_X,Accel_Y,Accel_Z,Throttle
20:16:15.881,-10.99,6.8,-67.85,-0.18,0.12,-0.67,-0.12,-0.19,1.01,1000
20:16:15.881,-10.99,6.8,-67.85,-0.12,0.12,-0.61,-0.12,-0.19,1.0,1000
20:16:15.881,-10.99,6.8,-67.86,-0.24,0.06,-0.67,-0.12,-0.19,1.01,1000
20:16:15.881,-10.99,6.8,-67.87,-0.18,0.0,-0.55,-0.12,-0.19,1.0,1000
20:16:15.881,-10.99,6.8,-67.87,-0.12,0.0,-0.49,-0.12,-0.19,1.0,1000
20:16:15.881,-10.99,6.8,-67.88,-0.37,0.06,-0.49,-0.12,-0.19,1.0,1000
20:16:15.881,-10.99,6.8,-67.88,-0.18,-0.06,-0.49,-0.12,-0.19,1.0,1000
20:16:15.881,-10.99,6.8,-67.89,-0.24,-0.06,-0.55,-0.12,-0.19,1.0,1000
20:16:15.881,-10.99,6.8,-67.89,-0.3,0.0,-0.37,-0.12,-0.19,1.0,1000
20:16:15.881,-10.99,6.8,-67.9,-0.18,0.12,-0.43,-0.12,-0.19,1.01,1000
20:16:15.881,-10.99,6.8,-67.91,-0.24,0.06,-0.61,-0.12,-0.19,1.0,1000
20:16:15.881,-10.99,6.8,-67.91,-0.06,0.06,-0.55,-0.12,-0.19,1.0,1000
20:16:15.881,-10.99,6.8,-67.92,-0.12,0.0,-0.49,-0.12,-0.19,1.0,1000
20:16:15.881,-10.99,6.8,-67.92,-0.24,-0.06,-0.61,-0.12,-0.19,1.01,1000
20:16:15.881,-11.0,6.8,-67.93,-0.24,-0.06,-0.55,-0.12,-0.19,1.01,1000
20:16:15.881,-11.0,6.8,-67.94,-0.37,0.06,-0.61,-0.12,-0.19,1.0,1000
20:16:15.881,-11.0,6.8,-67.94,-0.18,0.06,-0.43,-0.12,-0.19,1.0,1000
20:16:15.881,-11.0,6.8,-67.95,-0.24,0.06,-0.55,-0.12,-0.19,1.01,1000
20:16:15.881,-11.0,6.8,-67.95,-0.18,-0.12,-0.43,-0.12,-0.19,1.0,1000
20:16:15.881,-11.0,6.8,-67.96,-0.3,0.06,-0.61,-0.12,-0.19,1.0,1000
20:16:15.881,-11.0,6.8,-67.97,-0.24,0.06,-0.43,-0.12,-0.19,1.01,1000
20:16:15.881,-11.0,6.8,-67.97,-0.12,0.06,-0.55,-0.12,-0.19,1.0,1000
20:16:15.881,-11.0,6.8,-67.98,-0.06,0.0,-0.61,-0.12,-0.19,1.01,1000
20:16:15.881,-11.0,6.8,-67.98,-0.12,0.0,-0.37,-0.12,-0.19,1.01,1000
20:16:15.881,-11.0,6.8,-67.99,-0.18,0.0,-0.55,-0.12,-0.19,1.0,1000
20:16:15.881,-11.0,6.8,-67.99,-0.24,-0.12,-0.37,-0.12,-0.19,1.01,1000
20:16:15.881,-11.0,6.8,-68.0,-0.24,0.12,-0.61,-0.12,-0.19,1.0,1000
20:16:15.881,-11.0,6.8,-68.01,-0.3,0.12,-0.43,-0.12,-0.19,1.0,1000
20:16:15.881,-11.0,6.8,-68.01,-0.24,0.0,-0.61,-0.12,-0.19,1.01,1000
20:16:15.882,-11.0,6.8,-68.02,-0.24,0.12,-0.55,-0.12,-0.19,1.01,1000
20:16:15.882,-11.0,6.8,-68.02,-0.12,-0.06,-0.55,-0.12,-0.19,1.0,1000
20:16:15.882,-11.0,6.8,-68.03,-0.37,-0.06,-0.73,-0.12,-0.19,1.01,1000
20:16:15.882,-11.0,6.8,-68.03,-0.37,0.0,-0.55,-0.12,-0.19,1.01,1000
20:16:15.882,-11.0,6.8,-68.04,-0.18,0.06,-0.61,-0.12,-0.19,1.0,1000
20:16:15.882,-11.0,6.8,-68.04,-0.18,-0.06,-0.43,-0.12,-0.19,1.0,1000
20:16:15.882,-11.0,6.8,-68.05,-0.24,0.0,-0.43,-0.12,-0.19,1.0,1000
20:16:15.882,-11.0,6.8,-68.06,-0.24,0.0,-0.67,-0.12,-0.19,1.0,1000
20:16:15.902,-11.0,6.8,-68.06,-0.3,0.12,-0.61,-0.12,-0.19,1.01,1000
20:16:15.905,-11.0,6.8,-68.07,-0.18,0.12,-0.61,-0.12,-0.19,1.01,1000
20:16:15.915,-11.0,6.8,-68.08,-0.18,0.12,-0.55,-0.12,-0.19,1.01,1000
20:16:15.926,-11.0,6.8,-68.08,-0.3,0.06,-0.61,-0.12,-0.19,1.01,1000
20:16:15.939,-11.0,6.8,-68.09,-0.12,0.12,-0.61,-0.12,-0.19,1.01,1000
20:16:15.948,-11.0,6.8,-68.09,-0.18,0.0,-0.55,-0.12,-0.19,1.0,1000
20:16:15.961,-11.0,6.8,-68.1,-0.3,0.12,-0.61,-0.12,-0.19,1.0,1000
20:16:15.970,-11.0,6.8,-68.1,-0.24,0.06,-0.73,-0.12,-0.19,1.0,1000
20:16:15.981,-11.0,6.8,-68.11,-0.18,0.12,-0.61,-0.12,-0.19,1.0,1000
20:16:15.993,-11.0,6.8,-68.12,-0.3,0.06,-0.61,-0.12,-0.19,1.0,1000
20:16:16.004,-11.0,6.8,-68.12,-0.3,0.12,-0.61,-0.12,-0.19,1.01,1000
20:16:16.016,-11.0,6.8,-68.13,-0.18,-0.06,-0.61,-0.12,-0.19,1.01,1000
20:16:16.025,-11.0,6.8,-68.13,-0.24,0.0,-0.67,-0.12,-0.19,1.01,1000
20:16:16.037,-11.0,6.8,-68.14,-0.24,0.12,-0.37,-0.12,-0.19,1.01,1000
20:16:16.049,-11.0,6.8,-68.15,-0.24,-0.18,-0.61,-0.12,-0.19,1.01,1000
20:16:16.058,-11.0,6.8,-68.15,-0.24,0.0,-0.61,-0.12,-0.19,1.01,1000
20:16:16.072,-11.0,6.8,-68.16,-0.24,-0.06,-0.55,-0.12,-0.19,1.01,1000
20:16:16.081,-11.0,6.8,-68.17,-0.3,0.0,-0.61,-0.12,-0.19,1.0,1000
20:16:16.095,-11.0,6.8,-68.17,-0.24,-0.06,-0.61,-0.12,-0.19,1.0,1000
20:16:16.469,-11.0,6.8,-68.18,-0.3,-0.06,-0.43,-0.12,-0.19,1.01,1000
20:16:16.469,-11.0,6.8,-68.18,-0.24,0.06,-0.55,-0.12,-0.19,1.0,1000
20:16:16.469,-11.0,6.8,-68.19,-0.12,0.06,-0.43,-0.12,-0.19,1.0,1000
20:16:16.469,-11.0,6.8,-68.19,-0.12,0.06,-0.43,-0.12,-0.19,1.01,1000
20:16:16.469,-11.0,6.8,-68.2,-0.18,-0.06,-0.49,-0.12,-0.19,1.0,1000
20:16:16.469,-11.0,6.8,-68.2,-0.37,0.06,-0.61,-0.12,-0.19,1.0,1000
20:16:16.469,-11.0,6.8,-68.21,-0.12,0.12,-0.49,-0.12,-0.19,1.0,1000
20:16:16.469,-11.0,6.8,-68.22,-0.3,-0.06,-0.49,-0.12,-0.19,1.01,1000
20:16:16.469,-11.0,6.8,-68.22,-0.12,0.06,-0.37,-0.12,-0.19,1.0,1000
20:16:16.469,-11.0,6.8,-68.23,-0.18,0.06,-0.61,-0.12,-0.19,1.01,1000
20:16:16.469,-11.0,6.8,-68.23,-0.24,0.06,-0.43,-0.12,-0.19,1.01,1000
20:16:16.469,-11.0,6.8,-68.24,-0.18,0.06,-0.61,-0.12,-0.19,1.01,1000
20:16:16.469,-11.0,6.8,-68.25,-0.3,0.06,-0.61,-0.12,-0.19,1.0,1000
20:16:16.469,-11.0,6.8,-68.25,-0.24,0.0,-0.61,-0.12,-0.19,1.0,1000
20:16:16.469,-11.0,6.8,-68.26,-0.18,-0.06,-0.43,-0.12,-0.19,1.0,1000
20:16:16.469,-11.0,6.8,-68.26,-0.43,0.0,-0.61,-0.12,-0.19,1.0,1000
20:16:16.469,-11.0,6.8,-68.27,-0.24,0.0,-0.61,-0.12,-0.19,1.01,1000
20:16:16.469,-11.0,6.8,-68.27,-0.18,0.0,-0.67,-0.12,-0.19,1.0,1000
20:16:16.470,-11.0,6.8,-68.28,-0.24,0.06,-0.73,-0.12,-0.19,1.01,1000
20:16:16.470,-11.0,6.8,-68.29,-0.37,0.0,-0.61,-0.12,-0.19,1.01,1000
20:16:16.470,-11.0,6.8,-68.29,-0.37,0.0,-0.49,-0.12,-0.19,1.0,1000
20:16:16.470,-11.0,6.8,-68.3,-0.24,0.0,-0.61,-0.12,-0.19,1.0,1000
20:16:16.470,-11.0,6.8,-68.3,-0.18,0.06,-0.43,-0.12,-0.19,1.0,1000
20:16:16.470,-11.0,6.8,-68.31,-0.18,0.0,-0.49,-0.12,-0.19,1.01,1000
20:16:16.470,-11.0,6.8,-68.31,-0.3,0.0,-0.61,-0.12,-0.19,1.01,1000
20:16:16.470,-11.0,6.8,-68.32,-0.12,0.0,-0.49,-0.12,-0.19,1.01,1000
20:16:16.470,-11.0,6.8,-68.33,-0.37,-0.06,-0.61,-0.12,-0.19,1.01,1000
20:16:16.470,-11.0,6.8,-68.33,-0.18,-0.06,-0.49,-0.12,-0.19,1.0,1000
20:16:16.470,-11.0,6.8,-68.34,-0.18,0.06,-0.49,-0.12,-0.19,1.01,1000
20:16:16.470,-11.0,6.8,-68.34,-0.24,-0.06,-0.55,-0.12,-0.19,1.0,1000
20:16:16.470,-11.0,6.8,-68.35,-0.3,-0.06,-0.67,-0.12,-0.19,1.0,1000
20:16:16.470,-11.0,6.8,-68.35,-0.18,0.12,-0.61,-0.12,-0.19,1.0,1000
20:16:16.470,-11.0,6.8,-68.36,-0.24,0.12,-0.55,-0.12,-0.19,1.0,1000
20:16:16.470,-11.0,6.8,-68.37,-0.24,0.0,-0.55,-0.12,-0.19,1.01,1000
20:16:16.476,-11.0,6.8,-68.37,-0.24,0.0,-0.49,-0.12,-0.19,1.01,1000
20:16:16.487,-11.0,6.8,-68.38,-0.37,0.0,-0.55,-0.12,-0.19,1.0,1000
20:16:16.498,-11.0,6.8,-68.38,-0.18,0.12,-0.3,-0.12,-0.19,1.0,1000
20:16:16.510,-11.0,6.8,-68.39,-0.3,0.06,-0.55,-0.12,-0.19,1.0,1000
20:16:16.520,-11.0,6.8,-68.4,-0.18,0.12,-0.55,-0.12,-0.19,1.0,1000
20:16:16.531,-11.0,6.8,-68.4,-0.3,0.06,-0.61,-0.12,-0.19,1.0,1000
20:16:16.542,-11.0,6.8,-68.41,-0.24,0.0,-0.67,-0.12,-0.19,1.01,1000
20:16:16.555,-11.0,6.8,-68.41,-0.24,-0.12,-0.67,-0.12,-0.19,1.01,1000
20:16:16.564,-11.01,6.8,-68.42,-0.37,0.12,-0.55,-0.12,-0.19,1.0,1000
20:16:16.576,-11.01,6.8,-68.43,-0.43,0.0,-0.61,-0.12,-0.2,1.01,1000
20:16:16.586,-11.01,6.8,-68.43,-0.18,0.0,-0.49,-0.12,-0.19,1.0,1000
20:16:16.597,-11.01,6.8,-68.44,-0.18,0.18,-0.55,-0.12,-0.19,1.0,1000
20:16:16.617,-11.01,6.8,-68.44,-0.18,-0.06,-0.49,-0.12,-0.19,1.0,1000
20:16:16.620,-11.01,6.8,-68.45,-0.3,0.06,-0.61,-0.12,-0.19,1.01,1000
20:16:16.630,-11.01,6.8,-68.46,-0.24,0.12,-0.43,-0.12,-0.19,1.0,1000
20:16:16.641,-11.01,6.8,-68.46,-0.3,0.06,-0.49,-0.12,-0.19,1.0,1000
20:16:16.655,-11.01,6.8,-68.47,-0.06,0.12,-0.37,-0.12,-0.19,1.01,1000
20:16:16.665,-11.01,6.8,-68.47,-0.12,-0.06,-0.73,-0.12,-0.19,1.0,1000
20:16:16.674,-11.01,6.8,-68.48,-0.24,0.06,-0.61,-0.12,-0.19,1.0,1000
20:16:16.685,-11.01,6.8,-68.48,-0.3,0.0,-0.49,-0.12,-0.19,1.0,1000
20:16:16.702,-11.01,6.8,-68.49,-0.12,0.06,-0.49,-0.12,-0.19,1.01,1000
20:16:16.721,-11.01,6.8,-68.5,-0.12,0.18,-0.43,-0.12,-0.19,1.0,1000
20:16:16.721,-11.0,6.8,-68.5,-0.18,0.0,-0.67,-0.12,-0.19,1.0,1000
20:16:16.729,-11.0,6.8,-68.51,-0.43,0.06,-0.37,-0.12,-0.19,1.01,1000
20:16:16.741,-11.0,6.8,-68.51,-0.18,0.12,-0.3,-0.12,-0.19,1.01,1000
20:16:16.755,-11.0,6.8,-68.52,-0.24,-0.06,-0.43,-0.12,-0.19,1.01,1000
20:16:16.762,-11.0,6.8,-68.52,-0.24,0.0,-0.55,-0.12,-0.19,1.01,1000
20:16:16.773,-11.0,6.8,-68.53,-0.18,0.0,-0.49,-0.12,-0.19,1.01,1000
20:16:16.786,-11.0,6.8,-68.54,-0.3,0.06,-0.55,-0.12,-0.19,1.01,1000
20:16:16.799,-11.0,6.8,-68.54,-0.24,0.06,-0.49,-0.12,-0.19,1.01,1000
20:16:16.806,-11.0,6.8,-68.55,-0.12,0.12,-0.61,-0.12,-0.19,1.0,1000
20:16:16.822,-11.0,6.8,-68.55,-0.24,0.0,-0.37,-0.12,-0.19,1.0,1000
20:16:16.828,-11.0,6.8,-68.56,-0.37,0.0,-0.61,-0.12,-0.19,1.01,1000
20:16:16.839,-11.01,6.8,-68.56,-0.3,0.12,-0.73,-0.12,-0.19,1.01,1000
20:16:16.857,-11.01,6.8,-68.57,-0.24,0.12,-0.43,-0.12,-0.19,1.01,1000
20:16:16.861,-11.01,6.8,-68.58,-0.12,0.0,-0.43,-0.12,-0.19,1.0,1000
20:16:16.873,-11.01,6.8,-68.58,-0.24,-0.06,-0.49,-0.12,-0.19,1.01,1000
20:16:16.884,-11.01,6.8,-68.59,-0.12,0.0,-0.49,-0.12,-0.19,1.01,1000
20:16:16.894,-11.01,6.8,-68.59,-0.3,0.0,-0.49,-0.12,-0.19,1.0,1000
20:16:16.907,-11.01,6.8,-68.6,-0.18,0.0,-0.49,-0.12,-0.19,1.0,1000
20:16:16.926,-11.01,6.8,-68.6,-0.12,0.12,-0.61,-0.12,-0.19,1.01,1000
20:16:16.928,-11.01,6.8,-68.61,-0.3,0.0,-0.37,-0.12,-0.19,1.0,1000
20:16:16.938,-11.01,6.8,-68.62,-0.24,0.0,-0.61,-0.12,-0.19,1.01,1000
20:16:16.949,-11.01,6.8,-68.62,-0.3,0.12,-0.73,-0.12,-0.19,1.01,1000
20:16:16.962,-11.01,6.8,-68.63,-0.3,-0.06,-0.67,-0.12,-0.19,1.01,1000
20:16:16.973,-11.01,6.8,-68.63,-0.18,0.18,-0.43,-0.12,-0.19,1.0,1000
20:16:16.982,-11.01,6.8,-68.64,-0.18,-0.06,-0.61,-0.12,-0.19,1.01,1000
20:16:16.993,-11.01,6.8,-68.65,-0.3,0.18,-0.61,-0.12,-0.19,1.01,1000
20:16:17.004,-11.01,6.8,-68.65,-0.18,0.12,-0.61,-0.12,-0.19,1.01,1000
20:16:17.017,-11.01,6.8,-68.66,-0.24,0.06,-0.49,-0.12,-0.19,1.0,1000
20:16:17.028,-11.01,6.8,-68.66,-0.24,0.06,-0.43,-0.12,-0.19,1.0,1000
20:16:17.038,-11.0,6.8,-68.67,-0.3,-0.06,-0.61,-0.12,-0.19,1.01,1000
20:16:17.048,-11.0,6.8,-68.68,-0.24,0.12,-0.61,-0.12,-0.19,1.0,1000
20:16:17.059,-11.0,6.8,-68.68,-0.3,0.0,-0.61,-0.12,-0.19,1.0,1000
20:16:17.071,-11.0,6.8,-68.69,-0.18,0.06,-0.37,-0.12,-0.19,1.0,1000
20:16:17.081,-11.0,6.8,-68.69,-0.12,0.06,-0.61,-0.12,-0.19,1.0,1000
20:16:17.093,-11.0,6.8,-68.7,-0.24,0.18,-0.49,-0.12,-0.19,1.01,1000
20:16:17.103,-11.0,6.8,-68.7,-0.18,0.0,-0.43,-0.12,-0.19,1.01,1000
20:16:17.319,-11.0,6.8,-68.71,-0.18,0.06,-0.55,-0.12,-0.2,1.0,1000
20:16:17.319,-11.0,6.8,-68.71,-0.12,-0.12,-0.37,-0.12,-0.19,1.0,1000
20:16:17.319,-11.0,6.8,-68.72,-0.3,0.06,-0.61,-0.12,-0.19,1.01,1000
20:16:17.319,-11.01,6.8,-68.73,-0.24,0.0,-0.67,-0.12,-0.2,1.01,1000
20:16:17.319,-11.01,6.8,-68.73,-0.24,0.0,-0.55,-0.12,-0.19,1.01,1000
20:16:17.319,-11.01,6.8,-68.74,-0.3,0.12,-0.55,-0.12,-0.19,1.01,1000
20:16:17.319,-11.01,6.8,-68.74,-0.3,-0.12,-0.55,-0.12,-0.19,1.0,1000
20:16:17.319,-11.01,6.8,-68.75,-0.3,0.06,-0.37,-0.12,-0.19,1.01,1000
20:16:17.319,-11.01,6.8,-68.75,-0.12,0.0,-0.49,-0.12,-0.19,1.01,1000
20:16:17.319,-11.01,6.8,-68.76,0.0,0.18,-0.67,-0.12,-0.19,1.01,1000
20:16:17.319,-11.01,6.8,-68.77,-0.43,0.12,-0.49,-0.12,-0.19,1.01,1000
20:16:17.319,-11.01,6.8,-68.77,-0.18,0.06,-0.79,-0.12,-0.19,1.01,1000
20:16:17.319,-11.01,6.8,-68.78,-0.18,0.18,-0.61,-0.12,-0.19,1.01,1000
20:16:17.319,-11.01,6.8,-68.78,-0.18,0.0,-0.55,-0.12,-0.19,1.0,1000
20:16:17.319,-11.01,6.8,-68.79,-0.3,0.06,-0.43,-0.12,-0.19,1.01,1000
20:16:17.319,-11.01,6.8,-68.8,-0.24,0.06,-0.61,-0.12,-0.19,1.0,1000
20:16:17.319,-11.01,6.8,-68.8,-0.18,-0.06,-0.67,-0.12,-0.19,1.0,1000
20:16:17.319,-11.01,6.8,-68.81,-0.12,0.0,-0.43,-0.12,-0.19,1.01,1000
20:16:17.319,-11.01,6.8,-68.81,-0.18,0.06,-0.61,-0.12,-0.19,1.01,1000
20:16:17.330,-11.01,6.8,-68.82,-0.24,0.0,-0.55,-0.12,-0.19,1.01,1000
20:16:17.334,-11.01,6.8,-68.82,-0.12,0.12,-0.43,-0.12,-0.19,1.01,1000
20:16:17.346,-11.01,6.8,-68.83,-0.18,0.06,-0.67,-0.12,-0.19,1.01,1000
20:16:17.358,-11.0,6.8,-68.84,-0.24,0.12,-0.55,-0.12,-0.19,1.0,1000
20:16:17.368,-11.0,6.8,-68.84,-0.3,0.12,-0.49,-0.12,-0.19,1.0,1000
20:16:17.381,-11.0,6.8,-68.85,-0.12,0.0,-0.37,-0.12,-0.19,1.0,1000
20:16:17.389,-11.0,6.8,-68.85,-0.12,0.12,-0.49,-0.12,-0.19,1.01,1000
20:16:17.401,-11.0,6.8,-68.86,-0.12,-0.12,-0.67,-0.12,-0.19,1.01,1000
20:16:17.412,-11.0,6.8,-68.86,-0.24,0.0,-0.49,-0.12,-0.19,1.01,1000
20:16:17.600,-11.0,6.8,-68.87,-0.3,-0.12,-0.55,-0.12,-0.19,1.01,1000
20:16:17.600,-11.0,6.8,-68.88,-0.24,-0.06,-0.55,-0.12,-0.19,1.0,1000
20:16:17.600,-11.0,6.8,-68.88,-0.3,0.12,-0.49,-0.12,-0.19,1.01,1000
20:16:17.600,-11.0,6.8,-68.89,-0.12,0.12,-0.49,-0.12,-0.19,1.01,1000
20:16:17.600,-11.0,6.8,-68.89,-0.3,0.12,-0.61,-0.12,-0.19,1.0,1000
20:16:17.600,-11.0,6.8,-68.9,-0.3,0.06,-0.67,-0.12,-0.19,1.01,1000
20:16:17.600,-11.0,6.8,-68.9,-0.12,0.0,-0.3,-0.12,-0.19,1.0,1000
20:16:17.600,-11.0,6.8,-68.91,-0.37,-0.06,-0.43,-0.12,-0.19,1.0,1000
20:16:17.600,-11.0,6.8,-68.91,-0.12,-0.12,-0.49,-0.12,-0.19,1.0,1000
20:16:17.600,-11.0,6.8,-68.92,-0.24,0.06,-0.61,-0.12,-0.19,1.01,1000
20:16:17.600,-11.01,6.8,-68.92,-0.18,0.12,-0.61,-0.12,-0.19,1.01,1000
20:16:17.600,-11.0,6.8,-68.93,-0.18,0.06,-0.67,-0.12,-0.19,1.01,1000
20:16:17.600,-11.0,6.8,-68.94,-0.12,0.06,-0.55,-0.12,-0.19,1.0,1000
20:16:17.600,-11.0,6.8,-68.94,-0.3,0.12,-0.49,-0.12,-0.19,1.01,1000
20:16:17.600,-11.0,6.8,-68.95,-0.37,0.0,-0.55,-0.12,-0.19,1.01,1000
20:16:17.600,-11.0,6.8,-68.95,-0.24,0.0,-0.37,-0.12,-0.19,1.01,1000
20:16:17.610,-11.0,6.8,-68.96,-0.12,0.06,-0.37,-0.12,-0.19,1.0,1000
20:16:17.622,-11.01,6.8,-68.97,-0.3,0.12,-0.73,-0.12,-0.19,1.0,1000
20:16:17.622,-11.01,6.8,-68.97,-0.24,0.06,-0.49,-0.12,-0.19,1.01,1000
20:16:17.638,-11.01,6.8,-68.98,-0.18,0.06,-0.49,-0.12,-0.19,1.0,1000
20:16:17.642,-11.01,6.8,-68.98,-0.24,0.06,-0.43,-0.12,-0.19,1.01,1000
20:16:17.653,-11.01,6.8,-68.99,-0.18,0.06,-0.61,-0.12,-0.19,1.01,1000
20:16:17.667,-11.01,6.8,-68.99,-0.24,0.06,-0.73,-0.12,-0.19,1.01,1000
20:16:17.675,-11.01,6.8,-69.0,-0.24,0.06,-0.49,-0.12,-0.19,1.01,1000
20:16:17.690,-11.0,6.8,-69.01,-0.12,-0.06,-0.37,-0.12,-0.19,1.01,1000
20:16:17.697,-11.0,6.8,-69.01,-0.12,0.12,-0.61,-0.12,-0.19,1.0,1000
20:16:17.708,-11.0,6.8,-69.02,-0.24,0.06,-0.43,-0.12,-0.19,1.01,1000
20:16:17.720,-11.0,6.8,-69.02,-0.24,0.0,-0.43,-0.12,-0.19,1.01,1000
20:16:17.941,-11.0,6.8,-69.03,-0.18,0.0,-0.49,-0.12,-0.19,1.01,1000
20:16:17.941,-11.0,6.8,-69.03,-0.06,0.06,-0.61,-0.12,-0.19,1.01,1000
20:16:17.941,-11.0,6.8,-69.04,-0.12,0.12,-0.43,-0.12,-0.19,1.01,1000
20:16:17.941,-11.0,6.8,-69.05,-0.3,0.12,-0.61,-0.12,-0.19,1.01,1000
20:16:17.941,-11.0,6.8,-69.05,-0.3,0.12,-0.55,-0.12,-0.19,1.0,1000
20:16:17.941,-11.01,6.8,-69.06,-0.18,-0.12,-0.37,-0.12,-0.19,1.01,1000
20:16:17.941,-11.01,6.8,-69.06,-0.24,0.12,-0.61,-0.12,-0.19,1.0,1000
20:16:17.941,-11.01,6.8,-69.07,-0.24,0.06,-0.49,-0.12,-0.19,1.0,1000
20:16:17.941,-11.01,6.8,-69.07,-0.3,0.12,-0.55,-0.12,-0.19,1.01,1000
20:16:17.941,-11.01,6.8,-69.08,-0.24,0.06,-0.37,-0.12,-0.19,1.01,1000
20:16:17.941,-11.01,6.8,-69.09,-0.24,0.06,-0.55,-0.12,-0.19,1.01,1000
20:16:17.941,-11.01,6.8,-69.09,-0.3,0.12,-0.55,-0.12,-0.19,1.01,1000
20:16:17.941,-11.01,6.8,-69.1,-0.3,-0.06,-0.67,-0.12,-0.19,1.0,1000
20:16:17.941,-11.01,6.8,-69.1,-0.06,0.06,-0.61,-0.12,-0.19,1.0,1000
20:16:17.941,-11.01,6.81,-69.11,-0.24,0.06,-0.55,-0.12,-0.2,1.01,1000
20:16:17.941,-11.01,6.81,-69.11,-0.24,0.06,-0.49,-0.12,-0.19,1.01,1000
20:16:17.941,-11.01,6.81,-69.12,-0.3,0.0,-0.49,-0.12,-0.19,1.01,1000
20:16:17.941,-11.01,6.81,-69.12,-0.12,0.0,-0.37,-0.12,-0.19,1.0,1000
20:16:17.941,-11.01,6.81,-69.13,-0.18,0.0,-0.55,-0.12,-0.19,1.01,1000
20:16:17.941,-11.01,6.81,-69.14,-0.3,0.0,-0.55,-0.12,-0.19,1.01,1000
20:16:17.950,-11.01,6.81,-69.14,-0.24,0.0,-0.61,-0.12,-0.19,1.0,1000
20:16:17.962,-11.01,6.81,-69.15,-0.18,0.06,-0.61,-0.12,-0.2,1.01,1000
20:16:17.972,-11.01,6.81,-69.15,0.06,0.06,-0.43,-0.12,-0.19,1.0,1000
20:16:17.984,-11.01,6.81,-69.16,-0.18,-0.12,-0.61,-0.12,-0.19,1.01,1000
20:16:17.995,-11.01,6.8,-69.17,-0.37,0.12,-0.61,-0.12,-0.19,1.01,1000
20:16:18.007,-11.01,6.8,-69.17,-0.18,0.06,-0.43,-0.12,-0.2,1.0,1000
20:16:18.019,-11.01,6.8,-69.18,-0.18,0.0,-0.24,-0.12,-0.19,1.01,1000
20:16:18.027,-11.01,6.8,-69.18,-0.18,0.18,-0.67,-0.12,-0.19,1.01,1000
20:16:18.043,-11.01,6.81,-69.19,-0.43,0.0,-0.61,-0.12,-0.19,1.01,1000
20:16:18.050,-11.01,6.8,-69.19,-0.12,0.12,-0.55,-0.12,-0.19,1.0,1000
20:16:18.060,-11.01,6.8,-69.2,-0.12,0.12,-0.37,-0.12,-0.19,1.01,1000
20:16:18.073,-11.01,6.81,-69.2,-0.12,0.06,-0.55,-0.12,-0.19,1.01,1000
20:16:18.083,-11.01,6.8,-69.21,-0.24,-0.12,-0.55,-0.12,-0.19,1.0,1000
20:16:18.093,-11.01,6.8,-69.22,-0.43,-0.12,-0.73,-0.12,-0.19,1.01,1000
20:16:18.104,-11.01,6.8,-69.22,-0.18,0.06,-0.49,-0.12,-0.2,1.0,1000
20:16:18.115,-11.01,6.8,-69.23,-0.24,0.12,-0.3,-0.12,-0.19,1.0,1000
20:16:18.126,-11.01,6.8,-69.23,-0.18,0.12,-0.55,-0.12,-0.19,1.0,1000
20:16:18.137,-11.01,6.8,-69.24,-0.43,-0.12,-0.67,-0.12,-0.19,1.01,1000
20:16:18.153,-11.01,6.8,-69.25,-0.18,-0.06,-0.49,-0.12,-0.19,1.0,1000
20:16:18.159,-11.01,6.8,-69.25,-0.24,0.12,-0.55,-0.12,-0.19,1.0,1000
20:16:18.170,-11.01,6.8,-69.26,-0.12,0.12,-0.55,-0.12,-0.19,1.0,1000
20:16:18.181,-11.01,6.8,-69.26,-0.18,-0.12,-0.61,-0.12,-0.19,1.01,1000
20:16:18.192,-11.01,6.8,-69.27,-0.18,0.06,-0.55,-0.12,-0.19,1.01,1000
20:16:18.204,-11.01,6.8,-69.27,-0.12,0.18,-0.61,-0.12,-0.19,1.01,1000
20:16:18.215,-11.01,6.8,-69.28,-0.12,0.0,-0.61,-0.12,-0.19,1.01,1000
20:16:18.225,-11.01,6.8,-69.29,-0.37,0.12,-0.49,-0.12,-0.19,1.0,1000
20:16:18.236,-11.01,6.8,-69.29,-0.24,0.0,-0.67,-0.12,-0.19,1.01,1000
20:16:18.254,-11.01,6.81,-69.3,-0.3,0.06,-0.43,-0.12,-0.19,1.01,1000
20:16:18.258,-11.01,6.81,-69.3,-0.18,0.06,-0.49,-0.12,-0.19,1.0,1000
20:16:18.269,-11.01,6.81,-69.31,-0.24,0.12,-0.61,-0.12,-0.19,1.0,1000
20:16:18.280,-11.01,6.81,-69.32,-0.24,0.12,-0.43,-0.12,-0.19,1.0,1000
20:16:18.291,-11.01,6.81,-69.32,-0.24,0.12,-0.49,-0.12,-0.19,1.0,1000
20:16:18.302,-11.01,6.81,-69.33,-0.24,0.12,-0.55,-0.12,-0.19,1.01,1000
20:16:18.315,-11.01,6.81,-69.33,-0.24,0.12,-0.61,-0.12,-0.19,1.0,1000
20:16:18.324,-11.01,6.81,-69.34,-0.12,0.18,-0.49,-0.12,-0.19,1.0,1000
20:16:18.335,-11.01,6.81,-69.34,-0.12,0.0,-0.43,-0.12,-0.19,1.0,1000
20:16:18.348,-11.01,6.81,-69.35,-0.3,0.12,-0.61,-0.12,-0.19,1.0,1000
20:16:18.358,-11.01,6.81,-69.36,-0.37,0.0,-0.55,-0.12,-0.19,1.0,1000
20:16:18.368,-11.01,6.81,-69.36,-0.3,0.0,-0.61,-0.12,-0.19,1.0,1000
20:16:18.380,-11.01,6.81,-69.37,-0.18,0.12,-0.18,-0.12,-0.19,1.01,1000
20:16:18.390,-11.01,6.81,-69.37,-0.12,0.12,-0.49,-0.12,-0.19,1.0,1000
20:16:18.401,-11.01,6.81,-69.38,-0.37,0.0,-0.55,-0.12,-0.19,1.0,1000
20:16:18.587,-11.01,6.81,-69.38,-0.3,0.06,-0.3,-0.12,-0.19,1.01,1000
20:16:18.587,-11.01,6.81,-69.39,-0.12,0.18,-0.49,-0.12,-0.19,1.0,1000
20:16:18.587,-11.01,6.81,-69.39,-0.24,0.0,-0.61,-0.12,-0.19,1.01,1000
20:16:18.587,-11.01,6.81,-69.4,-0.3,0.12,-0.55,-0.12,-0.19,1.0,1000
20:16:18.587,-11.01,6.81,-69.41,-0.3,-0.12,-0.43,-0.12,-0.19,1.0,1000
20:16:18.587,-11.01,6.81,-69.41,-0.18,-0.06,-0.67,-0.12,-0.19,1.01,1000
20:16:18.587,-11.01,6.81,-69.42,-0.18,-0.12,-0.61,-0.12,-0.19,1.0,1000
20:16:18.587,-11.01,6.81,-69.42,-0.18,-0.06,-0.43,-0.12,-0.19,1.01,1000
20:16:18.588,-11.01,6.81,-69.43,-0.3,-0.12,-0.55,-0.12,-0.19,1.0,1000
20:16:18.588,-11.01,6.81,-69.43,-0.37,0.0,-0.61,-0.12,-0.19,1.01,1000
20:16:18.588,-11.01,6.81,-69.44,-0.24,0.06,-0.55,-0.12,-0.19,1.0,1000
20:16:18.588,-11.01,6.81,-69.45,-0.18,0.0,-0.43,-0.12,-0.19,1.0,1000
20:16:18.588,-11.01,6.81,-69.45,-0.37,0.06,-0.61,-0.12,-0.19,1.0,1000
20:16:18.588,-11.01,6.81,-69.46,-0.24,-0.12,-0.55,-0.12,-0.19,1.01,1000
20:16:18.588,-11.01,6.81,-69.46,-0.3,0.18,-0.49,-0.12,-0.19,1.01,1000
20:16:18.588,-11.01,6.81,-69.47,-0.18,0.0,-0.49,-0.12,-0.19,1.01,1000
20:16:18.588,-11.01,6.81,-69.48,-0.12,0.0,-0.55,-0.12,-0.19,1.0,1000
20:16:18.599,-11.01,6.81,-69.48,-0.3,0.06,-0.55,-0.12,-0.19,1.0,1000
20:16:18.611,-11.01,6.81,-69.49,-0.24,-0.12,-0.49,-0.12,-0.19,1.01,1000
20:16:18.622,-11.01,6.81,-69.5,-0.24,-0.06,-0.49,-0.12,-0.19,1.0,1000
20:16:18.633,-11.01,6.81,-69.5,-0.18,0.0,-0.55,-0.12,-0.19,1.01,1000
20:16:18.644,-11.01,6.81,-69.51,-0.24,0.12,-0.61,-0.12,-0.19,1.0,1000
20:16:18.664,-11.01,6.81,-69.51,-0.3,0.06,-0.55,-0.12,-0.19,1.0,1000
20:16:18.666,-11.01,6.81,-69.52,-0.12,0.06,-0.43,-0.12,-0.19,1.01,1000
20:16:18.677,-11.01,6.81,-69.52,-0.12,0.0,-0.49,-0.12,-0.2,1.01,1000
20:16:18.687,-11.01,6.81,-69.53,-0.37,-0.06,-0.49,-0.12,-0.19,1.01,1000
20:16:18.700,-11.01,6.81,-69.54,-0.24,0.06,-0.43,-0.12,-0.19,1.0,1000
20:16:18.711,-11.01,6.81,-69.54,-0.24,0.0,-0.49,-0.12,-0.19,1.0,1000
20:16:18.720,-11.02,6.81,-69.55,-0.24,0.0,-0.49,-0.12,-0.19,1.0,1000
20:16:18.732,-11.02,6.8,-69.55,-0.37,0.12,-0.55,-0.12,-0.19,1.01,1000
20:16:18.745,-11.02,6.81,-69.56,-0.18,-0.06,-0.61,-0.12,-0.19,1.01,1000
20:16:18.951,-11.02,6.81,-69.56,-0.24,-0.06,-0.49,-0.12,-0.19,1.0,1000
20:16:18.951,-11.02,6.8,-69.57,-0.24,0.06,-0.49,-0.12,-0.19,1.01,1000
20:16:18.951,-11.02,6.81,-69.58,-0.18,0.06,-0.49,-0.12,-0.19,1.01,1000
20:16:18.951,-11.02,6.81,-69.58,-0.24,0.06,-0.61,-0.12,-0.19,1.0,1000
20:16:18.951,-11.02,6.81,-69.59,-0.12,0.12,-0.37,-0.12,-0.19,1.01,1000
20:16:18.951,-11.02,6.81,-69.59,-0.18,0.12,-0.73,-0.12,-0.19,1.01,1000
20:16:18.951,-11.02,6.81,-69.6,-0.37,-0.12,-0.49,-0.12,-0.19,1.01,1000
20:16:18.951,-11.02,6.81,-69.6,-0.24,0.06,-0.61,-0.12,-0.19,1.01,1000
20:16:18.951,-11.02,6.81,-69.61,-0.12,-0.12,-0.43,-0.12,-0.19,1.01,1000
20:16:18.951,-11.02,6.81,-69.62,-0.12,0.12,-0.61,-0.12,-0.19,1.01,1000
20:16:18.951,-11.02,6.81,-69.62,-0.24,0.0,-0.3,-0.12,-0.19,1.0,1000
20:16:18.951,-11.02,6.81,-69.63,-0.43,0.0,-0.55,-0.12,-0.19,1.01,1000
20:16:18.951,-11.02,6.81,-69.63,-0.18,0.12,-0.55,-0.12,-0.19,1.01,1000
20:16:18.951,-11.02,6.81,-69.64,-0.3,-0.12,-0.55,-0.12,-0.19,1.01,1000
20:16:18.951,-11.02,6.81,-69.64,-0.18,0.12,-0.43,-0.12,-0.19,1.0,1000
20:16:18.951,-11.02,6.81,-69.65,-0.3,0.06,-0.61,-0.12,-0.19,1.01,1000
20:16:18.951,-11.02,6.81,-69.65,-0.12,0.12,-0.43,-0.12,-0.19,1.0,1000
20:16:18.951,-11.02,6.81,-69.66,-0.24,0.06,-0.55,-0.12,-0.19,1.01,1000
20:16:18.951,-11.02,6.81,-69.67,-0.37,0.06,-0.61,-0.12,-0.19,1.01,1000
20:16:18.965,-11.02,6.81,-69.67,-0.3,0.12,-0.61,-0.12,-0.19,1.01,1000
20:16:18.974,-11.02,6.81,-69.68,-0.18,0.0,-0.61,-0.12,-0.19,1.0,1000
20:16:18.984,-11.02,6.81,-69.68,-0.37,0.06,-0.49,-0.12,-0.19,1.01,1000
20:16:18.995,-11.02,6.81,-69.69,-0.18,0.06,-0.49,-0.12,-0.19,1.0,1000
20:16:19.008,-11.02,6.81,-69.7,-0.3,0.12,-0.3,-0.12,-0.19,1.01,1000
20:16:19.017,-11.02,6.81,-69.7,-0.12,0.12,-0.67,-0.12,-0.19,1.0,1000
20:16:19.032,-11.01,6.81,-69.71,-0.3,0.0,-0.55,-0.12,-0.19,1.0,1000
20:16:19.040,-11.02,6.81,-69.71,-0.37,0.06,-0.37,-0.12,-0.19,1.0,1000
20:16:19.051,-11.02,6.81,-69.72,-0.18,-0.06,-0.61,-0.12,-0.19,1.0,1000
20:16:19.068,-11.01,6.81,-69.72,-0.18,0.12,-0.61,-0.12,-0.19,1.0,1000
20:16:19.077,-11.01,6.81,-69.73,-0.24,0.12,-0.61,-0.12,-0.19,1.0,1000
20:16:19.085,-11.01,6.81,-69.74,-0.18,0.0,-0.55,-0.12,-0.19,1.01,1000
20:16:19.095,-11.01,6.8,-69.74,-0.43,0.12,-0.61,-0.12,-0.19,1.01,1000
20:16:19.105,-11.01,6.8,-69.75,-0.43,-0.12,-0.67,-0.12,-0.19,1.0,1000
20:16:19.116,-11.01,6.8,-69.75,-0.18,0.12,-0.61,-0.12,-0.19,1.0,1000
20:16:19.128,-11.01,6.8,-69.76,-0.12,0.0,-0.43,-0.12,-0.19,1.01,1000
20:16:19.141,-11.01,6.8,-69.76,-0.24,0.12,-0.61,-0.12,-0.19,1.0,1000
20:16:19.151,-11.01,6.8,-69.77,-0.37,0.12,-0.55,-0.12,-0.19,1.01,1000
20:16:19.160,-11.01,6.8,-69.78,-0.24,0.18,-0.49,-0.12,-0.19,1.01,1000
20:16:19.177,-11.01,6.8,-69.78,-0.18,0.12,-0.61,-0.12,-0.19,1.01,1000
20:16:19.183,-11.01,6.81,-69.79,-0.24,0.06,-0.49,-0.12,-0.19,1.01,1000
20:16:19.194,-11.01,6.81,-69.79,-0.12,-0.06,-0.37,-0.12,-0.19,1.01,1000
20:16:19.204,-11.01,6.81,-69.8,-0.24,0.12,-0.55,-0.12,-0.19,1.0,1000
20:16:19.215,-11.02,6.81,-69.81,-0.24,0.12,-0.67,-0.12,-0.19,1.0,1000
20:16:19.228,-11.02,6.81,-69.81,-0.24,0.06,-0.43,-0.12,-0.19,1.0,1000
20:16:19.241,-11.02,6.81,-69.82,-0.24,0.06,-0.49,-0.12,-0.19,1.01,1000
20:16:19.248,-11.02,6.81,-69.82,-0.24,0.06,-0.43,-0.12,-0.19,1.0,1000
20:16:19.260,-11.02,6.81,-69.83,-0.18,0.12,-0.49,-0.12,-0.19,1.0,1000
20:16:19.279,-11.02,6.81,-69.83,-0.18,0.0,-0.43,-0.12,-0.19,1.01,1000
20:16:19.282,-11.02,6.81,-69.84,-0.12,0.06,-0.61,-0.12,-0.19,1.01,1000
20:16:19.293,-11.02,6.81,-69.85,-0.37,0.0,-0.49,-0.12,-0.19,1.01,1000
20:16:19.304,-11.02,6.81,-69.85,-0.12,0.0,-0.49,-0.12,-0.19,1.01,1000
20:16:19.314,-11.02,6.81,-69.86,-0.24,0.12,-0.67,-0.12,-0.19,1.01,1000
20:16:19.326,-11.02,6.81,-69.86,-0.18,0.12,-0.55,-0.12,-0.19,1.01,1000
20:16:19.336,-11.01,6.81,-69.87,-0.12,0.12,-0.49,-0.12,-0.19,1.0,1000
20:16:19.348,-11.01,6.8,-69.87,-0.18,-0.06,-0.43,-0.12,-0.19,1.01,1000
20:16:19.358,-11.01,6.8,-69.88,-0.18,0.0,-0.55,-0.12,-0.19,1.01,1000
20:16:19.379,-11.01,6.81,-69.89,-0.24,0.0,-0.61,-0.12,-0.19,1.0,1000
20:16:19.381,-11.01,6.81,-69.89,-0.12,-0.06,-0.49,-0.12,-0.19,1.0,1000
20:16:19.392,-11.01,6.81,-69.9,-0.3,0.12,-0.43,-0.12,-0.19,1.01,1000
20:16:19.402,-11.01,6.81,-69.9,-0.3,-0.06,-0.55,-0.12,-0.19,1.01,1000
20:16:19.418,-11.01,6.81,-69.91,-0.18,0.06,-0.43,-0.12,-0.19,1.0,1000
20:16:19.424,-11.01,6.81,-69.91,-0.24,0.12,-0.55,-0.12,-0.19,1.01,1000
20:16:19.435,-11.01,6.81,-69.92,-0.18,-0.06,-0.73,-0.12,-0.19,1.0,1000
20:16:19.447,-11.01,6.81,-69.93,-0.18,0.0,-0.55,-0.12,-0.19,1.01,1000
20:16:19.457,-11.01,6.81,-69.93,-0.3,0.18,-0.49,-0.12,-0.19,1.0,1000
20:16:19.469,-11.01,6.81,-69.94,-0.3,-0.06,-0.67,-0.12,-0.19,1.01,1000
20:16:19.484,-11.01,6.8,-69.95,-0.18,0.06,-0.61,-0.12,-0.19,1.01,1000
20:16:19.490,-11.01,6.8,-69.95,-0.12,0.0,-0.61,-0.12,-0.19,1.01,1000
20:16:19.501,-11.01,6.8,-69.96,-0.18,0.06,-0.43,-0.12,-0.19,1.0,1000
20:16:19.512,-11.01,6.8,-69.96,-0.24,0.0,-0.49,-0.12,-0.19,1.0,1000
20:16:19.524,-11.01,6.8,-69.97,-0.24,0.12,-0.3,-0.12,-0.19,1.01,1000
20:16:19.535,-11.01,6.8,-69.97,-0.24,0.12,-0.55,-0.12,-0.19,1.01,1000
20:16:19.545,-11.01,6.8,-69.98,-0.3,0.12,-0.55,-0.12,-0.19,1.01,1000
20:16:19.556,-11.01,6.8,-69.99,-0.24,0.0,-0.55,-0.12,-0.19,1.01,1000
20:16:19.567,-11.01,6.8,-69.99,-0.24,0.0,-0.61,-0.12,-0.19,1.0,1000
20:16:19.586,-11.01,6.8,-70.0,-0.18,0.12,-0.61,-0.12,-0.19,1.01,1000
20:16:19.590,-11.01,6.8,-70.0,-0.24,0.12,-0.61,-0.12,-0.19,1.01,1000
20:16:19.601,-11.01,6.8,-70.01,-0.18,0.12,-0.61,-0.12,-0.19,1.0,1000
20:16:19.612,-11.01,6.8,-70.02,-0.12,0.0,-0.49,-0.12,-0.19,1.01,1000
20:16:19.622,-11.01,6.8,-70.02,-0.12,0.06,-0.61,-0.12,-0.19,1.01,1000
20:16:19.634,-11.01,6.8,-70.03,-0.24,-0.06,-0.55,-0.12,-0.19,1.01,1000
20:16:19.647,-11.01,6.8,-70.03,-0.24,0.06,-0.61,-0.12,-0.19,1.01,1000
20:16:19.656,-11.01,6.8,-70.04,-0.3,0.12,-0.55,-0.12,-0.19,1.01,1000
20:16:19.667,-11.01,6.8,-70.04,-0.3,0.06,-0.61,-0.12,-0.19,1.01,1000
20:16:19.680,-11.01,6.8,-70.05,-0.18,0.18,-0.3,-0.12,-0.19,1.01,1000
20:16:19.691,-11.01,6.8,-70.06,-0.24,0.0,-0.73,-0.12,-0.19,1.01,1000
20:16:19.700,-11.01,6.8,-70.06,-0.3,0.06,-0.49,-0.12,-0.19,1.01,1000
20:16:19.711,-11.01,6.8,-70.07,-0.3,0.24,-0.49,-0.12,-0.19,1.01,1000
20:16:19.721,-11.01,6.8,-70.08,-0.24,0.0,-0.55,-0.12,-0.19,1.01,1000
20:16:19.734,-11.01,6.8,-70.08,-0.12,0.12,-0.61,-0.12,-0.19,1.01,1000
20:16:19.743,-11.01,6.8,-70.09,-0.3,0.06,-0.61,-0.12,-0.19,1.01,1000
20:16:19.754,-11.01,6.8,-70.09,-0.3,0.12,-0.49,-0.12,-0.19,1.01,1000
20:16:19.765,-11.01,6.8,-70.1,-0.24,0.06,-0.49,-0.12,-0.19,1.01,1000
20:16:19.776,-11.01,6.8,-70.1,-0.37,0.0,-0.55,-0.12,-0.19,1.0,1000
20:16:19.790,-11.01,6.8,-70.11,-0.12,-0.12,-0.55,-0.12,-0.19,1.01,1000
20:16:19.801,-11.01,6.8,-70.12,-0.12,-0.06,-0.49,-0.12,-0.19,1.01,1000
20:16:19.809,-11.01,6.8,-70.12,-0.18,0.12,-0.43,-0.12,-0.19,1.0,1000
20:16:19.820,-11.01,6.8,-70.13,-0.3,-0.12,-0.61,-0.12,-0.19,1.01,1000
20:16:19.831,-11.01,6.8,-70.13,-0.12,0.0,-0.61,-0.12,-0.19,1.01,1000
20:16:19.842,-11.01,6.8,-70.14,-0.3,0.12,-0.55,-0.12,-0.19,1.01,1000
20:16:19.854,-11.01,6.8,-70.15,-0.3,0.06,-0.49,-0.12,-0.19,1.01,1000
20:16:19.867,-11.01,6.8,-70.15,-0.24,0.0,-0.55,-0.12,-0.19,1.01,1000
20:16:19.878,-11.01,6.8,-70.16,-0.24,0.12,-0.61,-0.12,-0.19,1.0,1000
20:16:19.895,-11.01,6.8,-70.16,-0.37,0.0,-0.61,-0.12,-0.19,1.01,1000
20:16:19.898,-11.01,6.8,-70.17,-0.18,0.06,-0.55,-0.12,-0.19,1.01,1000
20:16:19.909,-11.01,6.8,-70.17,-0.12,0.06,-0.61,-0.12,-0.19,1.01,1000
20:16:19.919,-11.01,6.8,-70.18,-0.24,0.06,-0.43,-0.12,-0.19,1.01,1000
20:16:19.931,-11.01,6.8,-70.19,-0.3,0.24,-0.61,-0.12,-0.19,1.0,1000
20:16:19.942,-11.01,6.8,-70.19,-0.3,0.12,-0.55,-0.12,-0.19,1.01,1000
20:16:19.953,-11.01,6.79,-70.2,-0.18,0.06,-0.49,-0.12,-0.19,1.0,1000
20:16:19.964,-11.01,6.79,-70.2,-0.18,0.06,-0.49,-0.12,-0.19,1.01,1000
20:16:19.975,-11.01,6.79,-70.21,-0.12,0.12,-0.43,-0.12,-0.19,1.01,1000
20:16:19.995,-11.01,6.79,-70.21,-0.12,0.0,-0.43,-0.12,-0.2,1.01,1000
20:16:19.998,-11.01,6.79,-70.22,-0.12,-0.18,-0.43,-0.12,-0.19,1.01,1000
20:16:20.008,-11.01,6.79,-70.23,-0.12,-0.12,-0.55,-0.12,-0.19,1.01,1000
20:16:20.019,-11.0,6.79,-70.23,-0.18,0.0,-0.61,-0.12,-0.19,1.01,1000
20:16:20.031,-11.0,6.79,-70.24,-0.3,-0.06,-0.43,-0.12,-0.19,1.0,1000
20:16:20.041,-11.0,6.79,-70.25,-0.3,0.0,-0.61,-0.12,-0.19,1.01,1000
20:16:20.052,-11.0,6.79,-70.25,-0.18,0.0,-0.43,-0.12,-0.19,1.01,1000
20:16:20.063,-11.0,6.79,-70.26,-0.18,0.12,-0.49,-0.12,-0.19,1.0,1000
20:16:20.075,-11.0,6.79,-70.26,-0.18,0.06,-0.55,-0.12,-0.19,1.0,1000
20:16:20.089,-11.0,6.79,-70.27,-0.12,0.12,-0.61,-0.12,-0.19,1.01,1000
20:16:20.098,-11.0,6.79,-70.28,-0.24,0.12,-0.55,-0.12,-0.19,1.01,1000
20:16:20.109,-11.0,6.79,-70.28,-0.37,0.0,-0.55,-0.12,-0.19,1.0,1000
20:16:20.118,-11.0,6.79,-70.29,-0.12,0.0,-0.61,-0.12,-0.19,1.01,1000
20:16:20.129,-11.0,6.79,-70.29,-0.18,0.06,-0.61,-0.12,-0.19,1.01,1000
20:16:20.140,-11.0,6.79,-70.3,-0.18,0.0,-0.43,-0.12,-0.19,1.0,1000
20:16:20.150,-11.0,6.79,-70.3,-0.24,0.06,-0.49,-0.12,-0.19,1.01,1000
20:16:20.162,-11.0,6.79,-70.31,-0.3,0.0,-0.43,-0.12,-0.19,1.01,1000
20:16:20.172,-11.0,6.79,-70.32,-0.12,-0.06,-0.49,-0.12,-0.19,1.01,1000
20:16:20.184,-11.0,6.79,-70.32,-0.18,0.06,-0.37,-0.12,-0.19,1.01,1000
20:16:20.202,-11.0,6.79,-70.33,-0.24,0.12,-0.61,-0.12,-0.19,1.0,1000
20:16:20.205,-11.0,6.79,-70.33,-0.18,0.12,-0.67,-0.12,-0.19,1.01,1000
20:16:20.217,-11.0,6.79,-70.34,-0.24,-0.06,-0.67,-0.12,-0.19,1.01,1000
20:16:20.227,-11.0,6.79,-70.35,-0.24,0.0,-0.49,-0.12,-0.19,1.01,1000
20:16:20.239,-11.0,6.79,-70.35,-0.3,0.12,-0.55,-0.12,-0.19,1.01,1000
20:16:20.250,-11.0,6.79,-70.36,-0.18,0.0,-0.43,-0.12,-0.2,1.0,1000
20:16:20.261,-11.0,6.79,-70.36,-0.18,0.0,-0.43,-0.12,-0.19,1.01,1000
20:16:20.272,-11.0,6.79,-70.37,-0.12,-0.06,-0.43,-0.12,-0.19,1.01,1000
20:16:20.282,-11.0,6.79,-70.38,-0.12,0.0,-0.43,-0.12,-0.19,1.0,1000
20:16:20.294,-11.0,6.79,-70.38,-0.24,0.12,-0.55,-0.12,-0.19,1.0,1000
20:16:20.305,-11.0,6.79,-70.39,-0.12,0.06,-0.61,-0.12,-0.19,1.0,1000
20:16:20.316,-11.01,6.79,-70.39,-0.24,-0.06,-0.61,-0.12,-0.2,1.0,1000
20:16:20.327,-11.01,6.79,-70.4,-0.37,0.12,-0.49,-0.12,-0.19,1.0,1000
20:16:20.339,-11.01,6.79,-70.41,-0.24,0.06,-0.49,-0.12,-0.19,1.01,1000
20:16:20.349,-11.01,6.79,-70.41,-0.12,0.0,-0.37,-0.12,-0.19,1.01,1000
20:16:20.360,-11.01,6.79,-70.42,-0.24,0.12,-0.61,-0.12,-0.19,1.0,1000
20:16:20.371,-11.01,6.79,-70.42,-0.18,0.12,-0.61,-0.12,-0.19,1.0,1000
20:16:20.382,-11.01,6.79,-70.43,-0.18,0.12,-0.61,-0.12,-0.19,1.0,1000
20:16:20.571,-11.01,6.79,-70.43,-0.18,0.06,-0.43,-0.12,-0.19,1.0,1000
20:16:20.571,-11.01,6.79,-70.44,-0.18,-0.06,-0.55,-0.12,-0.19,1.01,1000
20:16:20.571,-11.01,6.79,-70.45,-0.24,0.0,-0.24,-0.12,-0.19,1.01,1000
20:16:20.571,-11.01,6.79,-70.45,-0.3,0.0,-0.49,-0.12,-0.19,1.0,1000
20:16:20.571,-11.01,6.79,-70.46,-0.12,-0.06,-0.49,-0.12,-0.19,1.01,1000
20:16:20.571,-11.01,6.79,-70.46,-0.3,0.06,-0.61,-0.12,-0.19,1.01,1000
20:16:20.571,-11.01,6.79,-70.47,-0.24,0.0,-0.55,-0.12,-0.19,1.01,1000
20:16:20.571,-11.01,6.79,-70.48,-0.49,-0.06,-0.49,-0.12,-0.19,1.01,1000
20:16:20.571,-11.01,6.79,-70.48,-0.24,0.0,-0.61,-0.12,-0.19,1.01,1000
20:16:20.571,-11.01,6.8,-70.49,-0.12,0.12,-0.61,-0.12,-0.19,1.01,1000
20:16:20.571,-11.01,6.8,-70.49,-0.24,0.0,-0.49,-0.12,-0.19,1.01,1000
20:16:20.571,-11.01,6.8,-70.5,-0.24,0.06,-0.61,-0.12,-0.19,1.0,1000
20:16:20.571,-11.01,6.8,-70.51,-0.3,0.06,-0.43,-0.12,-0.19,1.0,1000
20:16:20.571,-11.01,6.8,-70.51,-0.12,0.06,-0.37,-0.12,-0.19,1.01,1000
20:16:20.571,-11.01,6.8,-70.52,-0.3,0.12,-0.61,-0.12,-0.19,1.01,1000
20:16:20.571,-11.01,6.8,-70.52,-0.24,0.06,-0.43,-0.12,-0.19,1.0,1000
20:16:20.571,-11.0,6.8,-70.53,-0.24,0.0,-0.49,-0.12,-0.19,1.01,1000
20:16:20.579,-11.01,6.8,-70.53,-0.37,-0.06,-0.55,-0.12,-0.19,1.01,1000
20:16:20.591,-11.0,6.8,-70.54,-0.18,0.06,-0.43,-0.12,-0.19,1.01,1000
20:16:20.798,-11.0,6.8,-70.54,-0.24,-0.06,-0.67,-0.12,-0.2,1.0,1000
20:16:20.798,-11.01,6.8,-70.55,-0.24,0.06,-0.61,-0.12,-0.19,1.0,1000
20:16:20.798,-11.01,6.8,-70.56,-0.3,-0.06,-0.55,-0.12,-0.19,1.01,1000
20:16:20.798,-11.01,6.8,-70.56,-0.3,0.0,-0.61,-0.12,-0.19,1.01,1000
20:16:20.798,-11.01,6.8,-70.57,-0.06,0.0,-0.43,-0.12,-0.19,1.0,1000
20:16:20.798,-11.01,6.8,-70.57,-0.24,-0.06,-0.55,-0.12,-0.19,1.01,1000
20:16:20.798,-11.01,6.8,-70.58,-0.3,0.12,-0.61,-0.12,-0.19,1.01,1000
20:16:20.798,-11.0,6.8,-70.58,-0.18,-0.06,-0.61,-0.12,-0.19,1.0,1000
20:16:20.798,-11.01,6.8,-70.59,-0.24,-0.06,-0.61,-0.12,-0.19,1.01,1000
20:16:20.798,-11.01,6.79,-70.6,-0.3,0.0,-0.61,-0.12,-0.19,1.01,1000
20:16:20.798,-11.01,6.79,-70.6,-0.12,0.06,-0.61,-0.12,-0.19,1.0,1000
20:16:20.798,-11.01,6.79,-70.61,-0.12,0.12,-0.43,-0.12,-0.19,1.01,1000
20:16:20.798,-11.01,6.79,-70.61,-0.24,0.06,-0.61,-0.12,-0.19,1.01,1000
20:16:20.798,-11.01,6.79,-70.62,-0.24,0.12,-0.49,-0.12,-0.19,1.01,1000
20:16:20.798,-11.01,6.79,-70.62,-0.3,0.12,-0.37,-0.12,-0.19,1.01,1000
20:16:20.798,-11.01,6.79,-70.63,-0.12,-0.18,-0.67,-0.12,-0.19,1.0,1000
20:16:20.798,-11.01,6.79,-70.64,-0.24,-0.06,-0.73,-0.12,-0.19,1.01,1000
20:16:20.798,-11.01,6.79,-70.64,-0.12,0.0,-0.61,-0.12,-0.19,1.01,1000
20:16:20.800,-11.01,6.79,-70.65,-0.18,0.12,-0.61,-0.12,-0.19,1.01,1000
20:16:20.816,-11.01,6.79,-70.65,-0.37,0.12,-0.61,-0.12,-0.19,1.01,1000
20:16:20.821,-11.01,6.79,-70.66,-0.3,0.12,-0.55,-0.12,-0.19,1.01,1000
20:16:20.832,-11.01,6.79,-70.67,-0.12,0.12,-0.55,-0.12,-0.19,1.01,1000
20:16:20.843,-11.01,6.79,-70.67,-0.24,0.06,-0.61,-0.12,-0.19,1.01,1000
20:16:20.854,-11.01,6.8,-70.68,-0.3,0.12,-0.49,-0.12,-0.19,1.0,1000
20:16:20.866,-11.01,6.79,-70.68,-0.3,0.06,-0.61,-0.12,-0.19,1.01,1000
20:16:20.876,-11.01,6.79,-70.69,-0.24,0.06,-0.67,-0.12,-0.19,1.01,1000
20:16:20.887,-11.01,6.79,-70.7,-0.24,0.0,-0.55,-0.12,-0.19,1.01,1000
20:16:20.898,-11.0,6.79,-70.7,-0.12,0.0,-0.67,-0.12,-0.19,1.01,1000
20:16:20.918,-11.0,6.79,-70.71,-0.18,0.12,-0.55,-0.12,-0.19,1.01,1000
20:16:20.920,-11.0,6.79,-70.71,-0.24,0.06,-0.61,-0.12,-0.19,1.01,1000
20:16:20.931,-11.0,6.79,-70.72,-0.3,0.06,-0.55,-0.12,-0.19,1.01,1000
20:16:20.942,-11.0,6.79,-70.73,-0.37,-0.06,-0.79,-0.12,-0.19,1.01,1000
20:16:21.130,-11.0,6.79,-70.73,-0.24,0.0,-0.61,-0.12,-0.19,1.0,1000
20:16:21.131,-11.0,6.79,-70.74,-0.24,0.0,-0.49,-0.12,-0.19,1.01,1000
20:16:21.131,-11.0,6.79,-70.74,-0.3,0.0,-0.61,-0.12,-0.19,1.0,1000
20:16:21.131,-11.0,6.79,-70.75,-0.18,0.06,-0.55,-0.12,-0.19,1.01,1000
20:16:21.131,-11.0,6.79,-70.76,-0.24,-0.06,-0.55,-0.12,-0.19,1.0,1000
20:16:21.131,-11.01,6.79,-70.76,-0.43,0.0,-0.43,-0.12,-0.19,1.0,1000
20:16:21.131,-11.01,6.8,-70.77,-0.12,0.12,-0.3,-0.12,-0.19,1.01,1000
20:16:21.131,-11.01,6.79,-70.77,-0.24,0.0,-0.55,-0.12,-0.19,1.01,1000
20:16:21.131,-11.01,6.79,-70.78,-0.3,-0.12,-0.73,-0.12,-0.19,1.0,1000
20:16:21.131,-11.01,6.79,-70.78,-1.22,-4.7,-0.18,-0.15,-0.21,0.98,1000
20:16:21.131,-10.99,6.79,-70.79,2.44,1.59,-0.61,-0.1,-0.17,1.0,1000
20:16:21.131,-10.98,6.79,-70.79,0.61,-0.85,-0.85,-0.11,-0.2,1.01,1000
20:16:21.131,-10.97,6.79,-70.8,0.61,-0.06,-0.61,-0.15,-0.16,1.0,1000
20:16:21.131,-10.97,6.78,-70.81,0.91,-0.61,-0.06,-0.11,-0.23,1.01,1000
20:16:21.131,-10.96,6.77,-70.81,0.18,0.12,-0.37,-0.11,-0.16,1.01,1000
20:16:21.131,-10.96,6.77,-70.81,-0.43,0.24,-0.85,-0.13,-0.19,1.01,1000
20:16:21.131,-10.96,6.77,-70.82,-2.13,0.3,-1.22,-0.11,-0.19,1.01,1000
20:16:21.140,-10.98,6.77,-70.83,-1.52,0.73,-0.73,-0.13,-0.19,1.0,1000
20:16:21.151,-10.99,6.78,-70.84,-0.91,1.22,-0.06,-0.11,-0.2,1.01,1000
20:16:21.163,-11.0,6.79,-70.84,-0.12,0.85,0.06,-0.13,-0.19,1.0,1000
20:16:21.174,-11.0,6.8,-70.84,-0.12,0.12,-0.55,-0.13,-0.19,1.0,1000
20:16:21.184,-11.0,6.79,-70.85,-0.43,-0.67,-0.91,-0.12,-0.19,1.01,1000
20:16:21.196,-11.0,6.79,-70.86,-0.12,-0.24,-0.91,-0.12,-0.2,1.01,1000
20:16:21.206,-11.0,6.79,-70.87,0.06,-0.06,-0.43,-0.12,-0.19,1.01,1000
20:16:21.225,-11.0,6.79,-70.87,-0.24,0.24,-0.06,-0.12,-0.19,1.01,1000
20:16:21.229,-11.0,6.79,-70.87,-0.61,0.18,-0.37,-0.12,-0.19,1.01,1000
20:16:21.239,-11.0,6.79,-70.87,-0.3,-0.12,-0.61,-0.12,-0.2,1.0,1000
20:16:21.250,-11.0,6.79,-70.88,0.06,-0.3,-0.67,-0.12,-0.19,1.0,1000
20:16:21.262,-11.0,6.78,-70.89,-0.12,0.0,-0.61,-0.12,-0.19,1.01,1000
20:16:21.278,-11.0,6.78,-70.89,-0.37,0.0,-0.49,-0.12,-0.19,1.01,1000
20:16:21.283,-11.0,6.78,-70.9,-0.49,0.18,-0.61,-0.12,-0.19,1.01,1000
20:16:21.295,-11.0,6.79,-70.9,-0.37,0.12,-0.61,-0.12,-0.19,1.01,1000
20:16:21.306,-11.0,6.79,-70.91,-0.24,-0.06,-0.55,-0.12,-0.19,1.01,1000
20:16:21.326,-11.0,6.78,-70.92,-0.24,0.0,-0.3,-0.12,-0.19,1.01,1000
20:16:21.329,-11.0,6.78,-70.92,-0.12,0.06,-0.43,-0.12,-0.19,1.01,1000
20:16:21.340,-11.0,6.78,-70.93,-0.24,0.12,-0.55,-0.12,-0.19,1.0,1000
20:16:21.350,-11.0,6.78,-70.93,-0.37,0.12,-0.3,-0.12,-0.19,1.01,1000
20:16:21.363,-11.0,6.78,-70.94,-0.43,0.12,-0.37,-0.12,-0.19,1.01,1000
20:16:21.373,-11.0,6.78,-70.94,-0.18,0.06,-0.67,-0.12,-0.19,1.01,1000
20:16:21.383,-11.0,6.78,-70.95,-0.24,-0.06,-0.49,-0.12,-0.19,1.0,1000
20:16:21.589,-11.0,6.78,-70.95,-0.3,0.06,-0.61,-0.12,-0.19,1.0,1000
20:16:21.589,-11.0,6.78,-70.96,-0.18,0.06,-0.49,-0.12,-0.19,1.01,1000
20:16:21.589,-11.0,6.78,-70.97,-0.43,0.12,-0.61,-0.12,-0.19,1.01,1000
20:16:21.589,-11.0,6.78,-70.97,-0.12,0.12,-0.3,-0.12,-0.19,1.01,1000
20:16:21.589,-11.0,6.78,-70.98,-0.43,-0.24,-0.49,-0.12,-0.19,1.01,1000
20:16:21.589,-11.0,6.78,-70.98,-0.24,0.12,-0.43,-0.12,-0.19,1.0,1000
20:16:21.589,-11.0,6.78,-70.99,-0.12,0.12,-0.43,-0.12,-0.19,1.0,1000
20:16:21.589,-11.0,6.78,-70.99,-0.3,0.12,-0.37,-0.12,-0.19,1.01,1000
20:16:21.589,-11.0,6.78,-71.0,-0.24,0.24,-0.49,-0.12,-0.19,1.01,1000
20:16:21.589,-11.0,6.78,-71.0,-0.37,0.12,-0.43,-0.12,-0.19,1.0,1000
20:16:21.589,-11.0,6.78,-71.01,-0.18,-0.18,-0.61,-0.12,-0.19,1.0,1000
20:16:21.589,-11.0,6.78,-71.01,-0.3,0.0,-0.43,-0.12,-0.19,1.01,1000
20:16:21.589,-11.0,6.78,-71.02,-0.3,0.06,-0.49,-0.12,-0.19,1.01,1000
20:16:21.589,-11.0,6.78,-71.03,-0.24,0.12,-0.67,-0.12,-0.19,1.01,1000
20:16:21.589,-11.0,6.78,-71.03,-0.24,0.06,-0.61,-0.12,-0.19,1.01,1000
20:16:21.589,-11.0,6.78,-71.04,-0.37,-0.18,-0.73,-0.12,-0.19,1.01,1000
20:16:21.589,-11.0,6.78,-71.04,-0.12,0.12,-0.43,-0.12,-0.19,1.01,1000
20:16:21.589,-11.0,6.78,-71.05,-0.18,0.06,-0.43,-0.12,-0.19,1.0,1000
20:16:21.593,-11.0,6.78,-71.05,-0.24,0.06,-0.43,-0.12,-0.19,1.0,1000
20:16:21.602,-11.0,6.78,-71.06,-0.18,-0.06,-0.43,-0.13,-0.19,1.01,1000
20:16:21.613,-10.99,6.78,-71.06,-0.06,0.18,-0.61,-0.12,-0.19,1.01,1000
20:16:21.626,-10.99,6.78,-71.07,-0.12,0.3,-0.55,-0.12,-0.19,1.0,1000
20:16:21.636,-10.99,6.79,-71.07,-0.37,0.0,-0.49,-0.13,-0.18,1.01,1000
20:16:21.646,-10.99,6.78,-71.08,-0.67,-0.24,-0.49,-0.12,-0.2,1.0,1000
20:16:21.658,-10.99,6.78,-71.08,-0.06,0.37,-0.3,-0.12,-0.19,1.0,1000
20:16:21.670,-10.99,6.78,-71.09,0.06,0.24,-0.55,-0.11,-0.19,1.01,1000
20:16:21.686,-10.99,6.79,-71.09,-0.12,0.06,-0.37,-0.12,-0.19,1.01,1000
20:16:21.691,-10.99,6.78,-71.09,-0.61,-0.37,-0.43,-0.13,-0.19,1.01,1000
20:16:21.702,-10.99,6.78,-71.1,-0.67,-0.37,-0.73,-0.12,-0.2,1.01,1000
20:16:21.712,-10.99,6.78,-71.11,0.24,0.24,-0.24,-0.12,-0.19,1.01,1000
20:16:21.728,-10.98,6.78,-71.11,-0.55,-0.06,-0.43,-0.13,-0.18,1.01,1000
20:16:21.736,-10.99,6.78,-71.12,-0.85,-0.43,-0.67,-0.12,-0.2,1.0,1000
20:16:21.749,-10.99,6.77,-71.12,-0.43,-0.12,-0.98,-0.12,-0.19,1.01,1000
20:16:21.756,-10.99,6.77,-71.13,-0.24,-0.18,-0.67,-0.13,-0.19,1.0,1000
20:16:21.767,-11.0,6.77,-71.14,-0.61,-0.61,-0.55,-0.12,-0.2,1.01,1000
20:16:21.779,-11.0,6.76,-71.15,-0.12,-0.12,-0.37,-0.11,-0.19,1.01,1000
20:16:21.790,-11.0,6.76,-71.15,-0.73,-0.3,-0.67,-0.12,-0.19,1.01,1000
20:16:21.800,-11.01,6.75,-71.16,-0.61,-0.49,-0.79,-0.12,-0.19,1.01,1000
20:16:21.812,-11.01,6.74,-71.17,-0.37,-0.61,-0.85,-0.12,-0.2,0.99,1000
20:16:22.012,-11.01,6.73,-71.18,0.37,-1.22,-0.24,-0.13,-0.2,1.01,1000
20:16:22.012,-11.0,6.72,-71.18,1.34,-2.68,-0.06,-0.12,-0.2,1.0,1000
20:16:22.012,-10.99,6.69,-71.18,0.98,-2.07,-0.49,-0.13,-0.18,1.01,1000
20:16:22.012,-10.98,6.67,-71.18,0.55,-2.5,-0.98,-0.11,-0.2,1.01,1000
20:16:22.012,-10.97,6.65,-71.19,0.85,-2.5,-0.85,-0.13,-0.19,1.01,1000
20:16:22.012,-10.96,6.63,-71.2,0.91,-2.13,-0.79,-0.12,-0.2,1.01,1000
20:16:22.012,-10.95,6.6,-71.21,0.61,-2.38,-0.73,-0.12,-0.18,1.0,1000
20:16:22.012,-10.94,6.57,-71.22,0.98,-2.56,-0.91,-0.11,-0.19,1.01,1000
20:16:22.012,-10.93,6.55,-71.22,0.98,-1.83,-0.73,-0.13,-0.18,1.01,1000
20:16:22.012,-10.91,6.53,-71.23,0.12,-1.59,-0.73,-0.11,-0.2,1.0,1000
20:16:22.012,-10.91,6.52,-71.24,-0.37,-0.12,-0.55,-0.1,-0.18,1.02,1000
20:16:22.012,-10.91,6.52,-71.25,-1.04,0.91,-0.3,-0.11,-0.18,1.02,1000
20:16:22.012,-10.92,6.53,-71.25,-1.16,1.83,-0.43,-0.12,-0.18,1.02,1000
20:16:22.012,-10.93,6.54,-71.25,-1.28,1.1,0.0,-0.11,-0.19,1.01,1000
20:16:22.012,-10.94,6.55,-71.25,-0.43,0.98,-0.43,-0.12,-0.19,1.01,1000
20:16:22.012,-10.94,6.56,-71.25,0.12,-0.24,-0.79,-0.13,-0.2,1.0,1000
20:16:22.012,-10.94,6.55,-71.26,0.37,-0.3,-1.16,-0.12,-0.17,1.0,1000
20:16:22.012,-10.94,6.55,-71.27,-0.55,-0.91,-1.1,-0.12,-0.21,1.0,1000
20:16:22.020,-10.93,6.54,-71.28,0.43,-0.18,-0.43,-0.11,-0.18,1.0,1000
20:16:22.207,-10.93,6.54,-71.28,0.24,0.06,-0.37,-0.12,-0.18,1.01,1000
20:16:22.207,-10.93,6.54,-71.29,-0.98,0.06,-0.67,-0.09,-0.18,1.02,1000
20:16:22.207,-10.93,6.54,-71.3,-0.98,0.98,-0.49,-0.12,-0.2,1.02,1000
20:16:22.207,-10.94,6.55,-71.3,-0.67,1.77,-0.49,-0.11,-0.18,1.0,1000
20:16:22.207,-10.95,6.57,-71.31,-1.34,0.98,-0.06,-0.13,-0.2,1.0,1000
20:16:22.207,-10.96,6.58,-71.31,-1.04,0.24,0.18,-0.12,-0.19,1.02,1000
20:16:22.207,-10.96,6.58,-71.31,-0.49,-0.73,-0.49,-0.13,-0.2,1.0,1000
20:16:22.207,-10.97,6.57,-71.32,-0.49,-1.4,-1.22,-0.12,-0.19,1.0,1000
20:16:22.207,-10.97,6.56,-71.33,-0.37,-1.28,-1.04,-0.12,-0.2,1.01,1000
20:16:22.207,-10.97,6.55,-71.34,-0.73,-0.98,-0.73,-0.11,-0.18,1.01,1000
20:16:22.207,-10.98,6.54,-71.34,-0.67,-0.37,-0.37,-0.11,-0.19,1.01,1000
20:16:22.207,-10.98,6.54,-71.35,-0.67,0.37,-0.55,-0.11,-0.19,1.0,1000
20:16:22.207,-10.98,6.54,-71.35,-0.06,0.24,-0.18,-0.12,-0.19,1.0,1000
20:16:22.207,-10.98,6.54,-71.35,0.12,-0.3,-0.37,-0.12,-0.19,1.0,1000
20:16:22.207,-10.98,6.54,-71.36,-0.3,-1.04,-0.43,-0.12,-0.19,1.01,1000
20:16:22.207,-10.98,6.53,-71.36,-0.18,-1.28,-0.73,-0.12,-0.2,1.0,1000
20:16:22.208,-10.98,6.51,-71.37,1.4,-2.93,0.0,-0.13,-0.2,1.01,1000
20:16:22.218,-10.96,6.47,-71.37,3.11,-5.85,0.0,-0.14,-0.21,1.0,1000
20:16:22.229,-10.92,6.4,-71.37,4.63,-8.05,-0.73,-0.13,-0.17,1.0,1000
20:16:22.248,-10.88,6.31,-71.38,2.07,-13.05,-1.83,-0.18,-0.21,0.99,1000
20:16:22.251,-10.86,6.2,-71.4,0.37,-13.96,-0.61,-0.12,-0.16,1.01,1000
20:16:22.262,-10.84,6.05,-71.4,0.79,-13.35,-0.3,-0.1,-0.2,1.01,1000
20:16:22.273,-10.83,5.92,-71.4,0.24,-10.79,-0.91,-0.1,-0.19,1.01,1000
20:16:22.284,-10.82,5.82,-71.42,0.73,-6.4,-2.38,-0.07,-0.2,1.0,1000
20:16:22.295,-10.81,5.77,-71.45,1.28,-1.4,-2.8,-0.06,-0.2,1.03,1000
20:16:22.307,-10.79,5.76,-71.47,2.62,3.48,-2.07,-0.08,-0.2,1.01,1000
20:16:22.318,-10.76,5.8,-71.49,3.23,7.62,0.12,-0.08,-0.17,1.0,1000
20:16:22.329,-10.73,5.87,-71.48,3.05,8.17,2.62,-0.1,-0.19,0.99,1000
20:16:22.347,-10.71,5.95,-71.45,2.32,7.13,2.87,-0.12,-0.18,1.01,1000
20:16:22.353,-10.68,6.01,-71.42,1.1,4.63,1.59,-0.14,-0.18,1.0,1000
20:16:22.362,-10.67,6.05,-71.41,-0.06,1.16,-0.79,-0.14,-0.17,1.0,1000
20:16:22.373,-10.67,6.06,-71.43,-0.61,-1.95,-2.26,-0.12,-0.18,1.01,1000
20:16:22.383,-10.67,6.04,-71.45,-0.3,-3.35,-2.01,-0.12,-0.19,1.01,1000
20:16:22.394,-10.67,6.01,-71.47,0.49,-2.87,-0.85,-0.1,-0.2,1.01,1000
20:16:22.406,-10.66,5.99,-71.48,0.98,-0.91,0.0,-0.09,-0.19,1.01,1000
20:16:22.419,-10.65,5.98,-71.48,0.49,0.73,0.12,-0.1,-0.18,1.01,1000
20:16:22.428,-10.65,5.99,-71.48,-0.98,1.28,-0.49,-0.1,-0.18,1.01,1000
20:16:22.605,-10.65,6.0,-71.48,-1.71,1.22,-0.61,-0.11,-0.19,1.01,1000
20:16:22.605,-10.67,6.01,-71.49,-1.28,0.79,-0.67,-0.11,-0.19,1.01,1000
20:16:22.605,-10.67,6.02,-71.49,0.06,0.12,-0.37,-0.11,-0.19,1.01,1000
20:16:22.605,-10.67,6.02,-71.5,0.49,-0.37,-0.37,-0.11,-0.18,1.01,1000
20:16:22.605,-10.66,6.01,-71.5,0.3,-0.85,-0.85,-0.11,-0.18,1.01,1000
20:16:22.605,-10.66,6.01,-71.51,-0.12,-0.67,-0.79,-0.11,-0.18,1.01,1000
20:16:22.605,-10.66,6.0,-71.52,-0.12,-0.24,-0.61,-0.1,-0.18,1.01,1000
20:16:22.605,-10.66,6.0,-71.52,-0.43,0.73,-0.49,-0.11,-0.18,1.01,1000
20:16:22.605,-10.66,6.01,-71.52,-0.43,0.49,-0.3,-0.11,-0.19,1.01,1000
20:16:22.605,-10.66,6.01,-71.53,-0.67,0.49,-0.49,-0.11,-0.19,1.01,1000
20:16:22.605,-10.66,6.01,-71.53,-0.3,0.12,-0.79,-0.11,-0.19,1.01,1000
20:16:22.605,-10.66,6.01,-71.54,-0.06,-0.3,-0.73,-0.11,-0.19,1.01,1000
20:16:22.605,-10.66,6.01,-71.55,0.0,-0.06,-0.49,-0.11,-0.19,1.01,1000
20:16:22.605,-10.66,6.01,-71.56,-0.24,0.06,-0.61,-0.11,-0.19,1.01,1000
20:16:22.605,-10.66,6.01,-71.56,-0.43,0.12,-0.3,-0.11,-0.18,1.01,1000
20:16:22.605,-10.66,6.01,-71.57,-0.24,0.12,-0.49,-0.11,-0.19,1.01,1000
20:16:22.615,-10.66,6.01,-71.57,-0.18,-0.12,-0.61,-0.11,-0.18,1.01,1000
20:16:22.626,-10.66,6.01,-71.58,-0.06,-0.24,-0.73,-0.11,-0.18,1.01,1000
20:16:22.636,-10.66,6.01,-71.58,-0.12,-0.18,-0.67,-0.1,-0.18,1.01,1000
20:16:22.650,-10.66,6.01,-71.59,-0.37,0.12,-0.55,-0.1,-0.18,1.01,1000
20:16:22.661,-10.66,6.01,-71.6,-0.3,0.18,-0.55,-0.1,-0.19,1.01,1000
20:16:22.669,-10.66,6.01,-71.6,-0.3,0.12,-0.61,-0.11,-0.19,1.01,1000
20:16:22.681,-10.66,6.01,-71.61,-0.24,-0.12,-0.55,-0.11,-0.19,1.01,1000
20:16:22.694,-10.66,6.01,-71.61,-0.18,-0.12,-0.37,-0.11,-0.19,1.01,1000
20:16:22.704,-10.66,6.01,-71.62,-0.12,0.0,-0.43,-0.11,-0.19,1.01,1000
20:16:22.713,-10.66,6.01,-71.63,-0.3,0.12,-0.24,-0.11,-0.19,1.01,1000
20:16:22.725,-10.66,6.01,-71.63,-0.18,0.18,-0.37,-0.11,-0.19,1.01,1000
20:16:22.736,-10.66,6.01,-71.64,-0.12,-0.06,-0.73,-0.11,-0.19,1.01,1000
20:16:22.747,-10.66,6.01,-71.64,-0.12,-0.18,-0.67,-0.11,-0.19,1.0,1000
20:16:22.760,-10.66,6.01,-71.65,-0.12,-0.06,-0.61,-0.11,-0.18,1.01,1000
20:16:22.774,-10.66,6.01,-71.65,-0.12,0.06,-0.43,-0.11,-0.19,1.01,1000
20:16:22.780,-10.66,6.01,-71.66,-0.18,0.06,-0.43,-0.11,-0.19,1.01,1000
20:16:22.792,-10.66,6.01,-71.66,-0.24,0.0,-0.43,-0.11,-0.19,1.01,1000
20:16:22.802,-10.66,6.01,-71.67,-0.24,0.06,-0.55,-0.11,-0.19,1.01,1000
20:16:22.813,-10.66,6.01,-71.68,-0.12,-0.06,-0.67,-0.11,-0.19,1.01,1000
20:16:22.824,-10.66,6.01,-71.68,-0.12,0.18,-0.61,-0.11,-0.18,1.01,1000
20:16:22.834,-10.65,6.01,-71.69,-0.06,0.12,-0.37,-0.11,-0.18,1.01,1000
20:16:22.845,-10.65,6.02,-71.69,-0.3,0.12,-0.55,-0.11,-0.19,1.01,1000
20:16:22.857,-10.65,6.02,-71.7,-0.18,0.12,-0.61,-0.11,-0.19,1.01,1000
20:16:22.867,-10.65,6.02,-71.7,-0.24,-0.12,-0.3,-0.11,-0.19,1.01,1000
20:16:22.879,-10.65,6.02,-71.71,-0.12,0.06,-0.67,-0.11,-0.19,1.01,1000
20:16:22.889,-10.65,6.02,-71.72,-0.37,0.0,-0.61,-0.1,-0.19,1.01,1000
20:16:22.901,-10.65,6.02,-71.72,-0.37,0.12,-0.37,-0.11,-0.19,1.01,1000
20:16:22.913,-10.65,6.02,-71.73,-0.24,0.12,-0.61,-0.11,-0.19,1.01,1000
20:16:22.923,-10.65,6.02,-71.73,-0.12,0.12,-0.55,-0.11,-0.19,1.01,1000
20:16:22.934,-10.65,6.02,-71.74,-0.3,-0.12,-0.49,-0.11,-0.19,1.01,1000
20:16:22.944,-10.65,6.02,-71.74,-0.18,0.0,-0.43,-0.11,-0.18,1.01,1000
20:16:22.965,-10.65,6.02,-71.75,-0.3,0.12,-0.24,-0.11,-0.18,1.01,1000
20:16:22.968,-10.65,6.02,-71.75,-0.3,0.0,-0.43,-0.11,-0.18,1.01,1000
20:16:22.978,-10.65,6.02,-71.76,-0.37,-0.12,-0.67,-0.11,-0.19,1.01,1000
20:16:22.989,-10.65,6.02,-71.76,-0.12,0.0,-0.43,-0.11,-0.19,1.01,1000
20:16:23.001,-10.65,6.02,-71.77,-0.12,0.06,-0.61,-0.11,-0.19,1.01,1000
20:16:23.011,-10.65,6.02,-71.78,-0.18,0.0,-0.61,-0.11,-0.18,1.01,1000
20:16:23.021,-10.65,6.02,-71.78,-0.3,0.12,-0.61,-0.11,-0.19,1.01,1000
20:16:23.032,-10.65,6.02,-71.79,-0.18,0.0,-0.37,-0.11,-0.19,1.01,1000
20:16:23.044,-10.65,6.02,-71.79,-0.18,0.06,-0.43,-0.11,-0.19,1.01,1000
20:16:23.064,-10.65,6.02,-71.8,-0.06,0.06,-0.43,-0.11,-0.18,1.01,1000
20:16:23.068,-10.65,6.02,-71.81,-0.24,0.0,-0.49,-0.1,-0.18,1.01,1000
20:16:23.078,-10.65,6.02,-71.81,-0.37,0.06,-0.55,-0.11,-0.19,1.01,1000
20:16:23.087,-10.65,6.02,-71.82,-0.18,0.06,-0.61,-0.11,-0.19,1.01,1000
20:16:23.098,-10.65,6.02,-71.82,-0.12,0.12,-0.49,-0.11,-0.19,1.01,1000
20:16:23.110,-10.65,6.02,-71.83,-0.37,0.12,-0.43,-0.11,-0.18,1.01,1000
20:16:23.120,-10.65,6.02,-71.83,-0.49,-0.06,-0.55,-0.11,-0.19,1.01,1000
20:16:23.131,-10.65,6.02,-71.84,-0.3,0.06,-0.37,-0.11,-0.19,1.01,1000
20:16:23.145,-10.65,6.02,-71.85,-0.12,0.0,-0.43,-0.11,-0.19,1.01,1000
20:16:23.153,-10.65,6.02,-71.85,-0.12,0.06,-0.49,-0.11,-0.19,1.01,1000
20:16:23.167,-10.65,6.02,-71.86,-0.3,0.06,-0.55,-0.11,-0.18,1.01,1000
20:16:23.176,-10.65,6.02,-71.86,-0.3,-0.06,-0.43,-0.11,-0.19,1.01,1000
20:16:23.187,-10.65,6.02,-71.87,-0.3,-0.06,-0.49,-0.11,-0.19,1.01,1000
20:16:23.198,-10.65,6.02,-71.87,-0.24,0.18,-0.85,-0.11,-0.18,1.01,1000
20:16:23.208,-10.65,6.02,-71.88,-0.18,0.06,-0.49,-0.11,-0.18,1.01,1000
20:16:23.220,-10.65,6.02,-71.89,-0.24,0.12,-0.67,-0.11,-0.18,1.01,1000
20:16:23.233,-10.65,6.02,-71.89,-0.3,0.0,-0.67,-0.11,-0.19,1.01,1000
20:16:23.241,-10.65,6.02,-71.9,-0.24,0.06,-0.43,-0.11,-0.18,1.01,1000
20:16:23.252,-10.65,6.02,-71.9,-0.24,0.0,-0.55,-0.11,-0.19,1.01,1000
20:16:23.264,-10.65,6.02,-71.91,-0.61,2.93,-2.68,-0.06,-0.14,1.08,1000
20:16:23.276,-10.65,6.03,-71.93,-1.65,0.98,-0.37,-0.13,-0.21,1.04,1000
20:16:23.285,-10.66,6.03,-71.93,-0.73,-2.01,1.16,-0.16,-0.23,0.99,1000
20:16:23.296,-10.66,6.02,-71.92,0.79,-1.89,0.06,-0.1,-0.19,1.01,1000
20:16:23.308,-10.65,6.01,-71.93,0.91,-0.85,-1.52,-0.12,-0.19,1.01,1000
20:16:23.319,-10.65,6.01,-71.94,0.85,0.12,-1.46,-0.1,-0.15,1.02,1000
20:16:23.330,-10.64,6.01,-71.96,-0.79,-0.43,-0.61,-0.12,-0.19,1.0,1000
20:16:23.340,-10.64,6.0,-71.96,-0.79,0.06,0.06,-0.08,-0.19,1.01,1000
20:16:23.352,-10.65,6.0,-71.96,-0.67,0.85,0.37,-0.1,-0.21,1.01,1000
20:16:23.366,-10.65,6.01,-71.96,0.06,2.2,-0.91,-0.06,-0.18,1.02,1000
20:16:23.374,-10.64,6.04,-71.98,2.26,7.56,-4.76,-0.09,-0.21,1.0,1000
20:16:23.385,-10.61,6.12,-72.05,2.87,9.57,-8.48,-0.05,-0.16,1.02,1000
20:16:23.395,-10.57,6.22,-72.17,3.66,11.22,-16.34,-0.05,-0.13,1.03,1000
20:16:23.406,-10.51,6.32,-72.39,4.33,11.83,-24.63,-0.09,-0.19,1.03,1000
20:16:23.417,-10.47,6.48,-72.69,2.32,17.68,-31.16,-0.2,-0.29,0.96,1000
20:16:23.428,-10.47,6.71,-73.06,1.59,22.68,-36.83,-0.09,-0.21,1.01,1000
20:16:23.439,-10.44,6.97,-73.48,5.79,21.59,-39.63,-0.15,-0.18,1.01,1000
20:16:23.453,-10.37,7.19,-73.91,10.79,15.67,-37.5,-0.17,-0.2,0.96,1000
20:16:23.461,-10.25,7.35,-74.3,15.43,12.13,-32.93,-0.14,-0.24,0.99,1000
20:16:23.479,-10.06,7.48,-74.63,26.28,13.6,-27.2,-0.06,-0.29,0.99,1000
20:16:23.483,-9.75,7.65,-74.9,41.46,21.1,-20.79,-0.06,-0.3,0.98,1000
20:16:23.495,-9.31,7.85,-75.1,48.48,20.12,-13.41,-0.1,-0.21,1.02,1000
20:16:23.505,-8.84,8.01,-75.21,44.88,11.77,-4.88,-0.23,-0.17,1.2,1000
20:16:23.516,-8.39,8.11,-75.23,40.0,6.28,3.35,-0.25,-0.2,1.1,1000
20:16:23.528,-7.99,8.19,-75.16,39.09,7.68,9.7,-0.12,-0.23,1.03,1000
20:16:23.539,-7.57,8.28,-75.04,40.73,10.0,12.32,-0.11,-0.1,0.99,1000
20:16:23.549,-7.16,8.39,-74.91,37.56,9.63,11.71,-0.16,-0.11,1.03,1000
20:16:23.560,-6.76,8.49,-74.77,35.3,11.28,13.78,-0.14,-0.12,0.99,1000
20:16:23.766,-6.42,8.62,-74.62,35.49,16.65,15.18,-0.09,-0.13,1.06,1000
20:16:23.766,-6.04,8.85,-74.45,35.49,30.67,16.46,-0.12,-0.18,1.07,1000
20:16:23.766,-5.67,9.26,-74.25,38.84,48.05,22.26,-0.15,-0.19,1.1,1000
20:16:23.766,-5.26,9.81,-73.96,46.46,60.06,31.95,-0.21,-0.14,1.12,1000
20:16:23.766,-4.75,10.48,-73.57,53.9,63.11,40.61,-0.28,-0.04,1.15,1000
20:16:23.766,-4.17,11.19,-73.11,57.5,63.23,43.72,-0.28,0.11,0.96,1000
20:16:23.767,-3.56,11.89,-72.63,53.78,57.32,43.6,-0.39,0.03,0.94,1000
20:16:23.767,-2.93,12.57,-72.15,56.77,52.26,44.09,-0.42,0.03,0.99,1000
20:16:23.767,-2.26,13.2,-71.65,59.51,50.12,47.26,-0.45,-0.06,0.96,1000
20:16:23.767,-1.58,13.79,-71.12,61.1,43.05,49.82,-0.38,-0.07,1.03,1000
20:16:23.767,-0.86,14.31,-70.57,65.73,40.98,49.21,-0.44,-0.1,1.12,1000
20:16:23.767,-0.13,14.72,-70.04,68.78,24.51,45.24,-0.38,-0.05,1.07,1000
20:16:23.767,0.6,14.96,-69.57,68.11,6.46,38.66,-0.41,-0.01,1.26,1000
20:16:23.767,1.36,15.03,-69.16,67.93,-7.13,34.76,-0.61,0.03,1.1,1000
20:16:23.767,2.13,14.89,-68.79,66.95,-32.99,33.17,-0.61,0.08,1.25,1000
20:16:23.767,2.83,14.51,-68.43,61.04,-60.06,30.67,-0.48,-0.08,1.25,1000
20:16:23.767,3.46,13.84,-68.11,72.8,-84.7,23.72,-0.03,0.15,1.22,1000
20:16:23.767,4.1,13.01,-67.85,75.67,-91.22,21.59,-0.42,-0.04,1.03,1000
20:16:23.771,4.94,12.13,-67.64,89.88,-88.84,13.17,-0.36,-0.04,1.0,1000
20:16:23.787,5.74,11.31,-67.53,92.87,-87.01,5.73,-0.32,0.2,1.13,1000
20:16:23.791,6.65,10.5,-67.54,82.2,-80.18,-7.5,-0.3,0.18,1.02,1000
20:16:23.802,7.47,9.74,-67.66,67.38,-77.07,-15.55,-0.32,0.19,1.31,1000
20:16:23.814,8.09,9.01,-67.85,48.54,-71.4,-19.33,-0.2,0.19,1.25,1000
20:16:23.824,8.45,8.4,-68.04,24.33,-66.46,-18.35,-0.26,0.2,1.36,1000
20:16:23.836,8.56,7.76,-68.25,-4.45,-51.22,-16.89,-0.17,0.21,1.15,1000
20:16:23.846,8.39,7.33,-68.43,-28.29,-35.91,-15.18,-0.16,0.22,1.18,1000
20:16:23.857,8.01,7.05,-68.59,-44.63,-21.52,-14.39,-0.14,0.22,1.06,1000
20:16:23.869,7.48,6.91,-68.73,-57.68,-8.78,-10.43,-0.11,0.19,1.13,1000
20:16:23.886,6.84,6.87,-68.83,-62.74,-2.2,-6.28,-0.18,0.2,1.08,1000
20:16:23.891,6.16,6.85,-68.88,-67.01,-7.99,-2.62,-0.2,0.18,1.08,1000
20:16:23.904,5.45,6.75,-68.9,-65.98,-18.29,0.37,-0.18,0.13,1.07,1000
20:16:23.912,4.76,6.52,-68.89,-60.73,-31.83,2.26,-0.19,0.08,1.08,1000
20:16:23.924,4.15,6.15,-68.86,-52.68,-46.65,3.48,-0.22,0.07,1.06,1000
20:16:23.935,3.63,5.62,-68.82,-42.56,-59.63,3.41,-0.2,0.06,1.06,1000
20:16:23.945,3.22,4.97,-68.78,-31.59,-69.7,3.6,-0.2,0.07,1.0,1000
20:16:23.956,2.93,4.22,-68.74,-23.9,-78.6,4.21,-0.16,0.03,0.99,1000
20:16:23.968,2.71,3.4,-68.69,-18.66,-84.45,6.89,-0.12,0.0,0.95,1000
20:16:23.985,2.52,2.51,-68.59,-13.05,-88.35,10.06,-0.07,-0.01,0.93,1000
20:16:23.991,2.37,1.57,-68.47,-10.37,-92.2,12.13,-0.06,0.0,0.88,1000
20:16:24.001,2.25,0.59,-68.34,-8.48,-94.94,12.44,-0.03,-0.01,0.85,1000
20:16:24.011,2.14,-0.43,-68.2,-6.83,-96.34,11.83,-0.01,-0.02,0.8,1000
20:16:24.025,2.04,-1.46,-68.08,-7.68,-96.59,9.76,0.01,-0.01,0.75,1000
20:16:24.033,1.92,-2.48,-67.99,-9.63,-93.9,6.28,0.06,-0.02,0.71,1000
20:16:24.044,1.78,-3.48,-67.94,-12.8,-88.96,2.68,0.09,-0.04,0.67,1000
20:16:24.055,1.58,-4.41,-67.92,-17.56,-81.16,-1.16,0.12,-0.04,0.64,1000
20:16:24.067,1.33,-5.27,-67.95,-22.01,-70.0,-3.6,0.12,-0.06,0.61,1000
20:16:24.245,1.03,-6.01,-68.0,-25.18,-58.05,-6.83,0.14,-0.07,0.6,1000
20:16:24.245,0.68,-6.62,-68.1,-27.93,-45.37,-12.38,0.17,-0.07,0.59,1000
20:16:24.246,0.31,-7.12,-68.26,-29.45,-32.8,-20.06,0.21,-0.09,0.59,1000
20:16:24.246,-0.05,-7.47,-68.49,-29.82,-21.34,-26.65,0.23,-0.1,0.58,1000
20:16:24.246,-0.44,-7.76,-68.81,-29.09,-10.12,-31.52,0.24,-0.11,0.57,1000
20:16:24.246,-0.83,-7.94,-69.17,-26.89,-1.28,-35.37,0.26,-0.12,0.55,1000
20:16:24.246,-1.19,-8.05,-69.57,-22.93,6.52,-37.87,0.25,-0.11,0.56,1000
20:16:24.246,-1.51,-8.1,-70.0,-17.13,12.74,-39.09,0.27,-0.11,0.57,1000
20:16:24.246,-1.74,-8.08,-70.44,-8.54,18.48,-41.52,0.26,-0.09,0.56,1000
20:16:24.246,-1.86,-8.02,-70.86,-1.4,21.04,-44.7,0.27,-0.07,0.58,1000
20:16:24.246,-1.91,-7.94,-71.37,4.88,22.2,-47.99,0.28,-0.04,0.58,1000
20:16:24.246,-1.87,-7.86,-71.91,10.98,23.05,-50.98,0.28,-0.03,0.59,1000
20:16:24.246,-1.76,-7.79,-72.48,15.85,22.5,-52.5,0.28,-0.01,0.59,1000
20:16:24.246,-1.57,-7.72,-73.06,20.91,22.74,-52.44,0.28,0.02,0.6,1000
20:16:24.246,-1.32,-7.64,-73.69,25.85,24.51,-51.59,0.28,0.04,0.6,1000
20:16:24.246,-0.99,-7.53,-74.19,30.67,27.93,-49.63,0.27,0.07,0.61,1000
20:16:24.254,-0.59,-7.37,-74.73,35.06,33.11,-46.83,0.27,0.1,0.62,1000
20:16:24.264,-0.13,-7.15,-75.23,38.6,39.82,-44.45,0.26,0.12,0.65,1000
20:16:24.275,0.38,-6.83,-75.71,42.32,47.99,-41.22,0.24,0.14,0.66,1000
20:16:24.295,0.94,-6.41,-76.14,46.16,56.46,-36.89,0.21,0.15,0.69,1000
20:16:24.300,1.55,-5.89,-76.57,49.21,62.62,-32.93,0.2,0.17,0.71,1000
20:16:24.308,2.19,-5.29,-76.88,52.56,67.01,-30.06,0.19,0.19,0.74,1000
20:16:24.320,2.89,-4.65,-77.2,55.85,68.9,-27.87,0.17,0.21,0.76,1000
20:16:24.331,3.62,-4.0,-77.51,58.84,69.02,-27.44,0.17,0.23,0.77,1000
20:16:24.342,4.37,-3.33,-77.81,57.8,67.56,-25.49,0.13,0.3,0.74,1000
20:16:24.352,5.16,-2.68,-78.1,65.67,71.28,-25.67,0.16,0.19,0.87,1000
20:16:24.363,6.03,-1.99,-78.38,64.39,67.26,-23.6,0.09,0.35,0.86,1000
20:16:24.374,6.86,-1.33,-78.62,62.93,67.32,-20.06,0.12,0.37,0.87,1000
20:16:24.385,7.66,-0.66,-78.82,60.0,68.29,-16.1,0.1,0.35,0.95,1000
20:16:24.405,8.45,0.03,-78.98,58.11,70.12,-11.04,0.06,0.36,0.94,1000
20:16:24.409,9.2,0.74,-79.08,52.87,69.63,-5.43,0.04,0.4,0.99,1000
20:16:24.418,9.89,1.46,-79.11,50.49,70.61,0.12,0.01,0.45,1.01,1000
20:16:24.430,10.56,2.18,-79.09,48.84,69.88,3.78,-0.02,0.47,1.02,1000
20:16:24.440,11.21,2.91,-79.04,48.78,68.05,7.32,-0.04,0.5,1.04,1000
20:16:24.451,11.89,3.61,-78.94,51.1,65.85,11.16,-0.03,0.5,1.06,1000
20:16:24.463,12.58,4.29,-78.79,53.23,62.74,16.71,-0.04,0.53,1.05,1000
20:16:24.474,13.29,4.92,-78.58,52.01,56.22,22.13,-0.03,0.54,1.06,1000
20:16:24.485,14.0,5.48,-78.32,52.62,50.61,26.4,-0.07,0.52,1.06,1000
20:16:24.502,14.69,5.96,-78.0,52.56,43.29,32.5,-0.09,0.5,1.07,1000
20:16:24.507,15.31,6.34,-77.66,53.05,36.83,36.83,-0.1,0.5,1.06,1000
20:16:24.517,16.05,6.73,-77.2,53.23,29.45,40.61,-0.1,0.56,1.01,1000
20:16:24.529,16.66,6.98,-76.71,51.71,24.39,41.1,-0.09,0.51,1.03,1000
20:16:24.541,17.29,7.21,-76.29,50.98,20.98,42.87,-0.1,0.49,1.05,1000
20:16:24.551,17.79,7.38,-75.94,47.93,19.63,43.9,-0.08,0.48,1.02,1000
20:16:24.563,18.3,7.55,-75.49,41.95,18.35,46.89,-0.08,0.46,1.0,1000
20:16:24.572,18.79,7.71,-74.97,34.27,15.55,49.02,-0.07,0.44,0.96,1000
20:16:24.583,19.19,7.84,-74.42,25.12,12.74,50.37,-0.09,0.42,0.94,1000
20:16:24.594,19.5,7.96,-73.86,20.06,14.15,50.98,-0.14,0.46,0.95,1000
20:16:24.606,19.76,8.12,-73.3,18.72,20.24,51.77,-0.18,0.48,0.96,1000
20:16:24.616,20.03,8.37,-72.73,20.3,28.05,51.59,-0.21,0.5,1.0,1000
20:16:24.627,20.32,8.72,-72.17,23.17,35.55,50.55,-0.23,0.52,1.02,1000
20:16:24.639,20.64,9.14,-71.62,25.61,40.06,48.84,-0.22,0.54,1.06,1000
20:16:24.649,20.94,9.57,-71.09,23.66,37.8,47.2,-0.24,0.5,1.08,1000
20:16:24.660,21.27,9.99,-70.59,26.83,37.2,42.44,-0.28,0.52,1.08,1000
20:16:24.671,21.62,10.41,-70.14,29.21,35.12,37.93,-0.29,0.55,1.08,1000
20:16:24.682,22.0,10.79,-69.74,32.07,31.46,33.41,-0.3,0.56,1.11,1000
20:16:24.697,22.41,11.14,-69.4,35.85,28.23,28.05,-0.31,0.59,1.13,1000
20:16:24.707,22.85,11.45,-69.12,38.48,25.67,22.07,-0.32,0.59,1.14,1000
20:16:24.716,23.32,11.74,-68.9,40.98,25.24,17.07,-0.32,0.57,1.14,1000
20:16:24.726,23.8,12.04,-68.73,43.23,27.68,12.68,-0.33,0.56,1.11,1000
20:16:24.739,24.3,12.37,-68.6,43.17,29.33,10.06,-0.31,0.56,1.13,1000
20:16:24.748,24.78,12.71,-68.51,41.46,29.82,7.56,-0.31,0.55,1.12,1000
20:16:24.760,25.24,13.05,-68.43,39.09,29.82,5.91,-0.31,0.55,1.12,1000
20:16:24.770,25.66,13.38,-68.37,35.67,28.72,4.39,-0.31,0.55,1.11,1000
20:16:24.781,26.03,13.69,-68.32,31.46,27.87,4.21,-0.29,0.56,1.14,1000
20:16:24.792,26.34,13.99,-68.28,25.91,25.98,4.33,-0.29,0.55,1.13,1000
20:16:24.805,26.59,14.25,-68.23,21.1,23.05,5.18,-0.3,0.54,1.14,1000
20:16:24.814,26.78,14.48,-68.16,16.95,20.61,6.46,-0.31,0.53,1.11,1000
20:16:24.825,26.93,14.68,-68.09,12.62,17.93,7.07,-0.31,0.52,1.12,1000
20:16:24.836,27.03,14.86,-68.01,8.84,15.3,7.44,-0.32,0.52,1.11,1000
20:16:24.847,27.08,15.01,-67.93,5.43,12.99,7.26,-0.32,0.51,1.1,1000
20:16:24.860,27.1,15.13,-67.85,2.01,10.12,6.28,-0.32,0.51,1.07,1000
20:16:24.872,27.08,15.22,-67.78,-1.1,7.07,4.7,-0.33,0.5,1.07,1000
20:16:24.880,27.04,15.29,-67.74,-3.78,4.33,3.11,-0.32,0.51,1.06,1000
20:16:24.891,26.97,15.33,-67.71,-6.04,1.65,1.77,-0.32,0.5,1.05,1000
20:16:25.100,26.88,15.33,-67.7,-8.17,-1.04,-0.12,-0.32,0.5,1.03,1000
20:16:25.100,26.75,15.31,-67.71,-10.79,-3.54,-1.95,-0.31,0.49,1.01,1000
20:16:25.100,26.62,15.28,-67.74,-12.8,-3.66,-3.84,-0.3,0.48,0.99,1000
20:16:25.101,26.47,15.25,-67.78,-14.51,-1.71,-5.24,-0.31,0.48,0.97,1000
20:16:25.101,26.29,15.25,-67.85,-16.04,1.4,-6.46,-0.31,0.48,0.96,1000
20:16:25.101,26.12,15.28,-67.92,-17.26,4.27,-7.32,-0.31,0.47,0.95,1000
20:16:25.101,25.91,15.34,-68.0,-18.29,6.22,-8.9,-0.3,0.46,0.94,1000
20:16:25.101,25.71,15.41,-68.11,-18.05,6.95,-9.76,-0.3,0.46,0.93,1000
20:16:25.101,25.53,15.49,-68.21,-16.65,6.65,-10.79,-0.31,0.45,0.92,1000
20:16:25.101,25.35,15.57,-68.33,-14.33,5.3,-11.89,-0.3,0.44,0.92,1000
20:16:25.101,25.2,15.62,-68.47,-12.01,2.93,-12.87,-0.3,0.44,0.9,1000
20:16:25.101,25.07,15.65,-68.62,-9.63,0.24,-14.63,-0.3,0.44,0.9,1000
20:16:25.101,24.97,15.65,-68.78,-7.13,-1.46,-15.24,-0.29,0.44,0.9,1000
20:16:25.101,24.9,15.64,-68.95,-5.24,-2.5,-15.3,-0.29,0.43,0.89,1000
20:16:25.101,24.86,15.62,-69.1,-3.78,-3.23,-14.88,-0.29,0.43,0.88,1000
20:16:25.101,24.82,15.59,-69.26,-3.05,-3.41,-13.96,-0.28,0.44,0.88,1000
20:16:25.101,24.79,15.55,-69.41,-2.32,-2.87,-12.99,-0.27,0.44,0.88,1000
20:16:25.101,24.77,15.53,-69.55,-1.95,-1.65,-11.95,-0.27,0.45,0.88,1000
20:16:25.101,24.76,15.51,-69.68,-1.95,-0.67,-11.04,-0.27,0.45,0.88,1000
20:16:25.115,24.75,15.51,-69.79,-1.65,0.37,-9.33,-0.26,0.45,0.89,1000
20:16:25.122,24.74,15.52,-69.89,-1.46,1.04,-7.38,-0.27,0.46,0.89,1000
20:16:25.133,24.74,15.53,-69.96,-1.1,1.52,-5.67,-0.27,0.47,0.91,1000
20:16:25.144,24.74,15.54,-70.01,-0.98,1.46,-3.72,-0.26,0.47,0.91,1000
20:16:25.155,24.74,15.54,-70.04,-1.46,0.73,-2.07,-0.27,0.48,0.91,1000
20:16:25.166,24.74,15.54,-70.06,-3.11,0.67,-0.55,-0.29,0.49,0.92,1000
20:16:25.177,24.71,15.55,-70.06,-4.51,2.26,1.65,-0.32,0.5,0.94,1000
20:16:25.188,24.67,15.6,-70.04,-6.28,6.04,2.68,-0.35,0.52,0.97,1000
20:16:25.199,24.62,15.69,-70.01,-8.35,10.85,2.56,-0.41,0.55,1.02,1000
20:16:25.218,24.53,15.85,-69.99,-11.28,15.49,-0.24,-0.44,0.57,1.07,1000
20:16:25.221,24.42,16.07,-70.01,-12.87,19.57,-4.15,-0.51,0.6,1.14,1000
20:16:25.232,24.31,16.32,-70.07,-12.99,22.87,-7.93,-0.57,0.62,1.19,1000
20:16:25.243,24.18,16.62,-70.17,-10.49,24.76,-10.49,-0.59,0.6,1.28,1000
20:16:25.254,24.1,16.89,-70.27,-7.87,23.78,-11.83,-0.61,0.58,1.31,1000
20:16:25.265,24.02,17.21,-70.41,-3.54,19.09,-12.68,-0.64,0.57,1.37,1000
20:16:25.276,23.98,17.44,-70.56,-0.67,11.83,-14.45,-0.67,0.58,1.4,1000
20:16:25.287,23.97,17.59,-70.72,4.51,3.72,-16.22,-0.68,0.56,1.45,1000
20:16:25.298,24.01,17.64,-70.91,8.05,-7.38,-18.29,-0.68,0.55,1.44,1000
20:16:25.317,24.05,17.56,-71.13,7.2,-21.04,-21.28,-0.7,0.55,1.42,1000
20:16:25.322,24.07,17.35,-71.39,4.02,-31.65,-27.87,-0.7,0.52,1.42,1000
20:16:25.335,24.05,17.06,-71.73,1.1,-32.56,-35.12,-0.69,0.53,1.4,1000
20:16:25.342,24.0,16.82,-72.16,-1.46,-25.18,-45.55,-0.66,0.58,1.4,1000
20:16:25.356,23.93,16.66,-72.7,-5.18,-13.35,-56.71,-0.6,0.6,1.36,1000
20:16:25.364,23.77,16.61,-73.39,-22.01,-5.12,-68.9,-0.58,0.6,1.33,1000
20:16:25.375,23.43,16.66,-74.19,-39.94,6.71,-79.27,-0.54,0.58,1.28,1000
20:16:25.386,22.92,16.86,-75.11,-54.51,23.54,-89.33,-0.51,0.57,1.26,1000
20:16:25.397,22.28,17.26,-76.15,-61.77,47.56,-103.66,-0.45,0.55,1.33,1000
20:16:25.408,21.62,17.92,-77.36,-57.01,72.2,-119.7,-0.42,0.55,1.4,1000
20:16:25.422,21.03,18.77,-78.74,-49.94,81.77,-133.48,-0.42,0.53,1.44,1000
20:16:25.430,20.49,19.59,-80.24,-47.32,66.4,-138.78,-0.42,0.5,1.5,1000
20:16:25.441,19.97,20.17,-81.77,-46.34,38.48,-138.9,-0.38,0.46,1.54,1000
20:16:25.452,19.44,20.38,-83.29,-46.59,3.29,-136.95,-0.37,0.47,1.54,1000
20:16:25.471,18.91,20.22,-84.78,-49.51,-29.94,-134.15,-0.35,0.52,1.55,1000
20:16:25.491,18.34,19.69,-86.24,-52.87,-56.71,-131.1,-0.3,0.52,1.56,1000
20:16:25.493,17.74,18.9,-87.66,-57.56,-75.98,-125.49,-0.3,0.57,1.52,1000
20:16:25.496,17.1,17.95,-89.01,-64.15,-90.06,-118.35,-0.28,0.6,1.48,1000
20:16:25.507,16.39,16.82,-90.28,-72.38,-105.85,-109.88,-0.27,0.68,1.5,1000
20:16:25.524,15.62,15.52,-91.45,-81.4,-122.93,-100.49,-0.29,0.76,1.47,1000
20:16:25.529,14.77,14.04,-92.5,-93.35,-140.67,-88.05,-0.33,0.79,1.33,1000
20:16:25.540,13.82,12.4,-93.41,-103.23,-154.94,-74.15,-0.32,0.77,1.19,1000
20:16:25.551,12.83,10.68,-94.16,-104.57,-157.56,-59.76,-0.29,0.75,1.09,1000
20:16:25.562,11.88,8.98,-94.74,-100.98,-154.21,-41.95,-0.27,0.73,1.03,1000
20:16:25.577,10.99,7.33,-95.11,-97.38,-153.29,-22.07,-0.29,0.7,0.93,1000
20:16:25.584,10.14,5.68,-95.26,-93.78,-159.51,-0.98,-0.32,0.68,0.87,1000
20:16:25.595,9.4,3.98,-95.2,-85.67,-169.15,15.18,-0.32,0.64,0.79,1000
20:16:25.606,8.76,2.19,-94.97,-74.7,-181.89,29.82,-0.31,0.58,0.74,1000
20:16:25.622,8.27,0.27,-94.56,-62.62,-198.84,47.32,-0.27,0.48,0.64,1000
20:16:25.629,7.88,-1.82,-93.97,-50.3,-213.9,64.94,-0.27,0.4,0.6,1000
20:16:25.641,7.64,-4.01,-93.17,-38.29,-225.79,81.28,-0.25,0.36,0.5,1000
20:16:25.650,7.52,-6.28,-92.23,-30.06,-232.87,92.99,-0.24,0.31,0.42,1000
20:16:25.661,7.47,-8.56,-91.16,-25.24,-233.6,101.52,-0.24,0.27,0.36,1000
20:16:25.672,7.44,-10.81,-90.02,-20.91,-227.68,106.71,-0.21,0.23,0.33,1000
20:16:25.683,7.47,-12.9,-88.84,-16.89,-217.56,107.8,-0.18,0.18,0.27,1000
20:16:25.694,7.54,-14.83,-87.65,-12.26,-201.95,108.23,-0.13,0.11,0.25,1000
20:16:25.705,7.62,-16.55,-86.46,-8.11,-183.23,106.28,-0.11,0.09,0.22,1000
20:16:25.904,7.72,-18.05,-85.32,-3.96,-163.6,100.49,-0.04,0.04,0.24,1000
20:16:25.904,7.81,-19.37,-84.25,-1.04,-143.9,93.72,0.0,-0.02,0.23,1000
20:16:25.904,7.83,-20.62,-83.24,0.85,-127.62,89.21,0.04,-0.07,0.27,1000
20:16:25.904,7.79,-21.69,-82.28,3.66,-111.83,84.45,0.08,-0.1,0.28,1000
20:16:25.904,7.67,-22.7,-81.36,5.73,-98.66,80.98,0.13,-0.14,0.32,1000
20:16:25.904,7.56,-23.55,-80.57,7.74,-87.13,76.34,0.18,-0.15,0.32,1000
20:16:25.904,7.38,-24.42,-79.75,6.52,-77.74,70.85,0.2,-0.13,0.35,1000
20:16:25.904,7.23,-25.22,-78.99,4.76,-68.17,65.91,0.23,-0.1,0.38,1000
20:16:25.904,7.05,-25.93,-78.28,3.35,-56.89,63.78,0.28,-0.12,0.44,1000
20:16:25.904,6.87,-26.58,-77.52,1.28,-45.18,64.21,0.34,-0.14,0.47,1000
20:16:25.904,6.7,-27.04,-76.87,-2.74,-36.89,65.49,0.39,-0.17,0.51,1000
20:16:25.904,6.44,-27.47,-76.13,-10.67,-29.45,68.84,0.4,-0.21,0.52,1000
20:16:25.904,6.08,-27.84,-75.36,-21.59,-25.37,72.26,0.39,-0.24,0.53,1000
20:16:25.904,5.63,-28.12,-74.63,-32.26,-19.82,74.7,0.4,-0.27,0.56,1000
20:16:25.904,5.11,-28.33,-73.88,-40.67,-12.38,75.55,0.38,-0.3,0.56,1000
20:16:25.904,4.38,-28.47,-73.06,-46.46,-4.82,74.09,0.37,-0.32,0.58,1000
20:16:25.904,3.61,-28.51,-72.26,-50.18,2.68,70.18,0.35,-0.36,0.59,1000
20:16:25.904,2.77,-28.46,-71.51,-51.65,8.84,65.73,0.32,-0.38,0.6,1000
20:16:25.914,1.91,-28.33,-70.81,-49.94,12.74,59.76,0.29,-0.4,0.62,1000
20:16:25.925,1.07,-28.14,-70.18,-46.65,13.78,52.74,0.27,-0.42,0.62,1000
20:16:25.936,0.28,-27.94,-69.63,-39.94,12.68,45.98,0.24,-0.44,0.63,1000
20:16:25.947,-0.43,-27.73,-69.17,-29.02,10.79,37.01,0.25,-0.46,0.64,1000
20:16:25.958,-1.01,-27.54,-68.8,-16.71,8.78,27.44,0.26,-0.46,0.66,1000
20:16:25.970,-1.45,-27.37,-68.54,-4.45,5.79,18.35,0.28,-0.48,0.67,1000
20:16:25.980,-1.73,-27.24,-68.37,7.13,3.66,11.71,0.3,-0.49,0.7,1000
20:16:25.991,-1.92,-27.12,-68.26,15.91,2.2,8.41,0.31,-0.49,0.71,1000
20:16:26.002,-2.01,-27.03,-68.18,23.41,1.83,6.1,0.33,-0.47,0.74,1000
20:16:26.013,-2.02,-26.93,-68.12,28.9,2.68,3.72,0.34,-0.44,0.77,1000
20:16:26.221,-1.96,-26.83,-68.09,33.23,4.33,0.79,0.34,-0.41,0.8,1000
20:16:26.222,-1.84,-26.71,-68.1,35.91,6.77,-2.5,0.35,-0.39,0.83,1000
20:16:26.222,-1.64,-26.58,-68.14,35.91,8.66,-5.61,0.34,-0.34,0.85,1000
20:16:26.222,-1.48,-26.42,-68.21,33.05,9.7,-8.41,0.36,-0.32,0.88,1000
20:16:26.222,-1.33,-26.25,-68.32,28.48,10.98,-10.43,0.37,-0.29,0.9,1000
20:16:26.222,-1.19,-26.08,-68.44,22.38,13.23,-11.65,0.37,-0.27,0.93,1000
20:16:26.222,-1.14,-25.88,-68.56,15.43,15.43,-11.83,0.38,-0.25,0.94,1000
20:16:26.222,-1.15,-25.65,-68.69,7.99,18.29,-11.4,0.38,-0.24,0.96,1000
20:16:26.222,-1.23,-25.39,-68.81,0.55,20.55,-10.79,0.38,-0.21,0.97,1000
20:16:26.222,-1.37,-25.12,-68.93,-5.98,21.59,-10.3,0.38,-0.2,0.99,1000
20:16:26.222,-1.57,-24.83,-69.04,-11.89,22.38,-8.84,0.37,-0.2,1.0,1000
20:16:26.222,-1.82,-24.55,-69.13,-15.98,22.2,-6.65,0.37,-0.19,1.0,1000
20:16:26.222,-2.1,-24.26,-69.19,-18.9,20.73,-4.21,0.35,-0.19,1.0,1000
20:16:26.222,-2.4,-24.0,-69.23,-19.7,17.74,-2.74,0.34,-0.2,1.0,1000
20:16:26.222,-2.69,-23.78,-69.26,-18.54,14.09,-2.32,0.33,-0.21,1.0,1000
20:16:26.222,-2.94,-23.61,-69.28,-15.73,10.0,-1.89,0.33,-0.21,0.99,1000
20:16:26.222,-3.17,-23.47,-69.3,-12.38,5.91,-1.71,0.33,-0.22,0.99,1000
20:16:26.222,-3.37,-23.37,-69.32,-8.72,1.95,-0.98,0.32,-0.22,0.97,1000
20:16:26.222,-3.53,-23.32,-69.32,-5.43,-2.38,-0.37,0.33,-0.21,0.96,1000
20:16:26.233,-3.65,-23.31,-69.33,-1.52,-5.24,-0.37,0.33,-0.21,0.96,1000
20:16:26.244,-3.73,-23.33,-69.33,2.5,-6.28,-0.91,0.33,-0.2,0.95,1000
20:16:26.255,-3.76,-23.35,-69.35,5.37,-6.1,-0.98,0.33,-0.19,0.94,1000
20:16:26.266,-3.77,-23.36,-69.36,7.68,-4.7,-0.79,0.35,-0.2,0.94,1000
20:16:26.278,-3.75,-23.37,-69.37,9.21,-2.87,-0.73,0.36,-0.19,0.93,1000
20:16:26.289,-3.72,-23.36,-69.37,9.94,-1.28,-0.24,0.36,-0.19,0.93,1000
20:16:26.299,-3.68,-23.33,-69.37,9.82,0.06,0.24,0.36,-0.18,0.93,1000
20:16:26.310,-3.65,-23.31,-69.36,8.48,-0.06,0.73,0.37,-0.17,0.93,1000
20:16:26.326,-3.63,-23.29,-69.35,6.71,-0.61,1.4,0.36,-0.17,0.92,1000
20:16:26.333,-3.62,-23.27,-69.34,4.76,-0.61,2.07,0.36,-0.16,0.93,1000
20:16:26.345,-3.63,-23.25,-69.31,3.05,1.04,2.26,0.37,-0.17,0.93,1000
20:16:26.356,-3.66,-23.21,-69.28,1.46,4.02,3.05,0.38,-0.17,0.93,1000
20:16:26.365,-3.71,-23.13,-69.24,-0.3,7.13,4.39,0.37,-0.17,0.94,1000
20:16:26.376,-3.78,-23.03,-69.19,-2.38,9.57,6.22,0.38,-0.19,0.94,1000
20:16:26.387,-3.87,-22.9,-69.11,-4.33,10.73,7.56,0.36,-0.18,0.95,1000
20:16:26.398,-3.98,-22.77,-69.02,-5.37,10.37,8.66,0.35,-0.19,0.95,1000
20:16:26.409,-4.1,-22.63,-68.93,-4.76,9.94,8.41,0.35,-0.19,0.97,1000
20:16:26.421,-4.21,-22.5,-68.84,-3.54,9.02,7.5,0.34,-0.19,0.97,1000
20:16:26.613,-4.3,-22.39,-68.76,-2.44,7.2,6.34,0.34,-0.2,0.97,1000
20:16:26.613,-4.38,-22.29,-68.7,-2.01,4.76,5.61,0.34,-0.2,0.97,1000
20:16:26.613,-4.46,-22.21,-68.64,-2.26,2.68,4.88,0.34,-0.2,0.97,1000
20:16:26.613,-4.55,-22.16,-68.59,-2.87,1.34,4.33,0.35,-0.2,0.97,1000
20:16:26.613,-4.65,-22.12,-68.54,-3.54,0.73,4.09,0.34,-0.21,0.97,1000
20:16:26.613,-4.75,-22.08,-68.5,-4.63,0.37,4.02,0.35,-0.21,0.97,1000
20:16:26.613,-4.88,-22.05,-68.45,-5.85,0.43,3.9,0.35,-0.2,0.97,1000
20:16:26.613,-4.99,-22.02,-68.4,-6.34,1.16,3.72,0.35,-0.2,0.96,1000
20:16:26.613,-5.12,-21.98,-68.36,-6.83,1.59,3.66,0.34,-0.2,0.95,1000
20:16:26.613,-5.26,-21.94,-68.33,-6.89,1.65,3.35,0.33,-0.2,0.95,1000
20:16:26.613,-5.39,-21.89,-68.29,-6.04,2.01,2.74,0.33,-0.2,0.96,1000
20:16:26.613,-5.51,-21.84,-68.26,-5.61,2.5,2.01,0.33,-0.2,0.95,1000
20:16:26.613,-5.63,-21.78,-68.25,-5.55,2.8,1.16,0.33,-0.2,0.95,1000
20:16:26.613,-5.74,-21.72,-68.24,-5.91,3.17,0.67,0.33,-0.2,0.96,1000
20:16:26.613,-5.86,-21.65,-68.23,-5.67,4.09,0.61,0.33,-0.2,0.97,1000
20:16:26.613,-5.98,-21.57,-68.22,-5.55,4.7,1.1,0.33,-0.2,0.96,1000
20:16:26.613,-6.09,-21.49,-68.21,-5.73,4.39,1.71,0.33,-0.21,0.96,1000
20:16:26.618,-6.2,-21.42,-68.19,-5.0,3.48,2.5,0.33,-0.21,0.96,1000
20:16:26.631,-6.3,-21.36,-68.16,-3.6,2.32,2.8,0.32,-0.2,0.97,1000
20:16:26.648,-6.39,-21.31,-68.13,-1.95,1.22,1.95,0.33,-0.2,0.97,1000
20:16:26.652,-6.45,-21.27,-68.11,-0.49,0.06,2.01,0.33,-0.21,0.97,1000
20:16:26.664,-6.5,-21.24,-68.08,0.67,-0.67,2.5,0.33,-0.21,0.96,1000
20:16:26.673,-6.54,-21.23,-68.05,1.28,-1.59,2.87,0.33,-0.21,0.97,1000
20:16:26.688,-6.58,-21.22,-68.02,1.34,-2.32,3.17,0.33,-0.21,0.96,1000
20:16:26.697,-6.61,-21.22,-67.98,0.98,-2.8,3.23,0.33,-0.21,0.96,1000
20:16:26.706,-6.65,-21.23,-67.95,0.61,-2.99,2.87,0.33,-0.21,0.96,1000
20:16:26.717,-6.7,-21.23,-67.92,0.49,-2.93,2.26,0.33,-0.21,0.96,1000
20:16:26.729,-6.74,-21.24,-67.9,0.18,-2.99,2.13,0.33,-0.21,0.95,1000
20:16:26.745,-6.79,-21.25,-67.87,-0.12,-2.74,2.2,0.34,-0.21,0.95,1000
20:16:26.754,-6.84,-21.25,-67.85,-0.49,-2.38,1.89,0.35,-0.22,0.95,1000
20:16:26.761,-6.9,-21.26,-67.83,-1.16,-2.2,1.71,0.35,-0.22,0.94,1000
20:16:26.772,-6.97,-21.26,-67.82,-2.32,-1.89,1.77,0.35,-0.22,0.94,1000
20:16:26.783,-7.05,-21.26,-67.8,-3.35,-1.34,1.83,0.34,-0.22,0.94,1000
20:16:26.795,-7.15,-21.26,-67.78,-3.96,-0.3,1.22,0.34,-0.22,0.94,1000
20:16:26.806,-7.24,-21.24,-67.77,-4.39,0.55,0.49,0.33,-0.21,0.93,1000
20:16:26.816,-7.34,-21.21,-67.77,-4.94,1.28,-0.55,0.34,-0.21,0.93,1000
20:16:26.827,-7.44,-21.18,-67.78,-5.24,2.26,-1.52,0.34,-0.21,0.93,1000
20:16:26.843,-7.55,-21.13,-67.8,-5.67,3.35,-2.01,0.35,-0.21,0.93,1000
20:16:26.854,-7.66,-21.07,-67.82,-5.85,4.51,-1.89,0.35,-0.21,0.93,1000
20:16:26.860,-7.77,-21.01,-67.84,-6.52,5.3,-0.85,0.35,-0.22,0.93,1000
20:16:26.871,-7.89,-20.94,-67.84,-7.56,5.55,0.67,0.35,-0.22,0.93,1000
20:16:26.882,-8.01,-20.87,-67.82,-7.8,6.34,2.5,0.35,-0.23,0.94,1000
20:16:26.893,-8.12,-20.8,-67.79,-6.83,7.26,4.02,0.34,-0.23,0.94,1000
20:16:26.905,-8.24,-20.7,-67.74,-5.73,7.44,4.94,0.33,-0.23,0.93,1000
20:16:26.918,-8.34,-20.61,-67.69,-4.76,6.83,5.49,0.33,-0.24,0.94,1000
20:16:26.926,-8.44,-20.53,-67.62,-4.39,5.12,6.4,0.33,-0.25,0.93,1000
20:16:26.937,-8.53,-20.47,-67.55,-4.39,2.68,7.13,0.32,-0.25,0.93,1000
20:16:27.154,-8.63,-20.43,-67.47,-4.21,0.49,7.87,0.32,-0.26,0.93,1000
20:16:27.154,-8.74,-20.42,-67.38,-4.21,-1.16,7.99,0.33,-0.26,0.93,1000
20:16:27.154,-8.83,-20.42,-67.29,-5.24,-3.11,8.54,0.33,-0.28,0.91,1000
20:16:27.154,-8.96,-20.45,-67.19,-6.89,-4.57,9.09,0.33,-0.29,0.91,1000
20:16:27.154,-9.09,-20.49,-67.1,-8.72,-5.91,10.18,0.34,-0.3,0.89,1000
20:16:27.154,-9.27,-20.55,-66.98,-11.46,-7.44,11.59,0.33,-0.32,0.87,1000
20:16:27.154,-9.49,-20.63,-66.84,-15.3,-8.9,13.11,0.34,-0.34,0.85,1000
20:16:27.154,-9.77,-20.72,-66.69,-18.9,-8.54,15.0,0.32,-0.36,0.83,1000
20:16:27.154,-10.09,-20.79,-66.52,-21.89,-6.65,16.46,0.3,-0.38,0.8,1000
20:16:27.154,-10.45,-20.84,-66.33,-23.66,-4.15,17.38,0.26,-0.38,0.77,1000
20:16:27.154,-10.84,-20.85,-66.15,-23.96,-2.56,16.52,0.25,-0.4,0.74,1000
20:16:27.154,-11.21,-20.85,-65.97,-21.16,-1.89,14.45,0.23,-0.43,0.72,1000
20:16:27.154,-11.58,-20.83,-65.82,-17.13,-3.48,11.59,0.22,-0.44,0.68,1000
20:16:27.154,-11.92,-20.84,-65.71,-11.46,-7.5,7.87,0.21,-0.46,0.66,1000
20:16:27.154,-12.17,-20.91,-65.64,-5.55,-12.56,4.33,0.21,-0.47,0.63,1000
20:16:27.154,-12.4,-21.01,-65.61,1.52,-18.35,1.16,0.2,-0.49,0.6,1000
20:16:27.154,-12.55,-21.19,-65.61,8.96,-24.33,-2.07,0.22,-0.52,0.57,1000
20:16:27.154,-12.66,-21.42,-65.65,15.91,-29.27,-4.94,0.23,-0.52,0.54,1000
20:16:27.154,-12.72,-21.71,-65.72,22.13,-33.96,-9.39,0.24,-0.51,0.5,1000
20:16:27.165,-12.73,-22.05,-65.85,27.32,-36.83,-14.57,0.25,-0.5,0.47,1000
20:16:27.170,-12.66,-22.43,-66.04,32.07,-37.38,-20.79,0.26,-0.48,0.44,1000
20:16:27.179,-12.59,-22.8,-66.3,37.2,-34.27,-28.35,0.25,-0.43,0.41,1000
20:16:27.190,-12.45,-23.12,-66.65,42.56,-27.74,-36.46,0.25,-0.4,0.39,1000
20:16:27.201,-12.24,-23.37,-67.09,48.96,-16.77,-45.67,0.28,-0.38,0.38,1000
20:16:27.213,-11.98,-23.49,-67.58,55.18,-4.27,-53.96,0.28,-0.35,0.37,1000
20:16:27.225,-11.62,-23.5,-68.21,60.3,9.51,-60.98,0.27,-0.31,0.36,1000
20:16:27.234,-11.17,-23.38,-68.91,64.51,22.07,-67.32,0.26,-0.26,0.37,1000
20:16:27.245,-10.68,-23.13,-69.67,68.29,33.41,-72.44,0.26,-0.23,0.38,1000
20:16:27.265,-10.12,-22.78,-70.49,72.62,45.12,-78.05,0.27,-0.2,0.4,1000
20:16:27.267,-9.48,-22.31,-71.37,77.07,55.98,-83.35,0.27,-0.16,0.44,1000
20:16:27.278,-8.75,-21.72,-72.31,80.37,66.77,-87.68,0.24,-0.1,0.45,1000
20:16:27.289,-7.95,-21.02,-73.29,82.74,76.59,-90.98,0.21,-0.04,0.5,1000
20:16:27.302,-7.07,-20.19,-74.29,86.04,85.73,-91.77,0.19,-0.0,0.54,1000
20:16:27.312,-6.11,-19.24,-75.3,88.84,93.66,-91.28,0.16,0.05,0.58,1000
20:16:27.322,-5.08,-18.2,-76.3,91.22,99.27,-89.82,0.13,0.09,0.6,1000
20:16:27.333,-3.99,-17.08,-77.28,94.02,103.66,-88.78,0.14,0.12,0.66,1000
20:16:27.344,-2.85,-15.9,-78.25,97.44,106.89,-86.95,0.09,0.17,0.69,1000
20:16:27.546,-1.65,-14.67,-79.19,100.37,107.8,-83.41,0.05,0.2,0.75,1000
20:16:27.546,-0.4,-13.43,-80.09,103.96,106.16,-79.21,0.04,0.21,0.78,1000
20:16:27.546,0.75,-12.33,-80.87,106.65,100.06,-75.55,0.05,0.22,0.8,1000
20:16:27.546,2.03,-11.21,-81.69,106.59,89.27,-71.95,0.03,0.24,0.86,1000
20:16:27.546,3.33,-10.21,-82.49,94.63,74.63,-72.5,0.02,0.34,0.88,1000
20:16:27.546,4.61,-9.3,-83.28,109.76,75.79,-72.13,-0.04,0.32,0.81,1000
20:16:27.546,5.92,-8.44,-84.07,107.5,68.96,-71.28,-0.08,0.41,0.89,1000
20:16:27.546,7.25,-7.57,-84.85,111.59,71.83,-70.91,-0.1,0.46,0.93,1000
20:16:27.546,8.65,-6.65,-85.63,119.21,78.66,-70.61,-0.14,0.47,1.01,1000
20:16:27.546,10.12,-5.68,-86.41,130.3,81.71,-71.28,-0.18,0.5,1.05,1000
20:16:27.546,11.59,-4.77,-87.14,142.44,77.93,-74.39,-0.19,0.52,1.06,1000
20:16:27.546,13.34,-3.83,-87.98,156.52,67.93,-79.88,-0.21,0.56,1.13,1000
20:16:27.546,15.23,-3.02,-88.89,169.27,54.94,-87.5,-0.23,0.61,1.15,1000
20:16:27.546,17.24,-2.37,-89.9,179.27,38.54,-97.13,-0.24,0.68,1.19,1000
20:16:27.546,19.33,-1.9,-91.0,183.54,21.59,-104.82,-0.23,0.74,1.21,1000
20:16:27.546,21.25,-1.65,-92.07,183.9,7.13,-109.88,-0.2,0.8,1.2,1000
20:16:27.546,23.33,-1.54,-93.29,178.84,-5.79,-113.72,-0.15,0.84,1.21,1000
20:16:27.546,25.34,-1.55,-94.55,170.3,-13.9,-116.65,-0.13,0.9,1.19,1000
20:16:27.553,27.24,-1.66,-95.84,158.05,-19.33,-116.71,-0.12,0.93,1.16,1000
20:16:27.567,28.99,-1.81,-97.12,144.09,-21.46,-115.12,-0.11,0.96,1.13,1000
20:16:27.576,30.58,-1.97,-98.36,127.44,-20.37,-111.1,-0.1,0.99,1.09,1000
20:16:27.586,31.99,-2.12,-99.56,110.91,-16.22,-105.55,-0.07,1.0,1.05,1000
20:16:27.597,33.23,-2.21,-100.7,97.38,-10.18,-99.57,-0.04,1.0,1.02,1000
20:16:27.609,34.34,-2.24,-101.87,85.61,-5.0,-93.78,-0.05,1.0,0.97,1000
20:16:27.624,35.31,-2.24,-102.77,75.91,-1.71,-86.95,-0.02,0.96,0.94,1000
20:16:27.630,36.19,-2.21,-103.7,67.26,1.46,-80.43,-0.04,0.97,0.9,1000
20:16:27.641,36.98,-2.13,-104.56,57.87,4.57,-74.57,-0.05,0.98,0.88,1000
20:16:27.652,37.67,-2.02,-105.36,50.61,10.67,-70.61,-0.05,0.98,0.88,1000
20:16:27.871,38.29,-1.82,-106.12,45.55,21.1,-66.52,-0.07,1.0,0.88,1000
20:16:27.871,38.86,-1.49,-106.83,40.49,31.89,-62.01,-0.09,1.01,0.89,1000
20:16:27.871,39.32,-1.09,-107.43,34.88,43.05,-56.52,-0.1,1.03,0.91,1000
20:16:27.871,39.76,-0.53,-108.02,28.78,52.38,-49.82,-0.13,1.03,0.93,1000
20:16:27.871,40.14,0.12,-108.54,24.57,59.63,-42.38,-0.14,1.03,0.96,1000
20:16:27.871,40.46,0.84,-108.97,21.77,64.15,-34.02,-0.17,1.03,0.98,1000
20:16:27.871,40.75,1.6,-109.3,19.82,65.49,-24.82,-0.21,1.02,1.01,1000
20:16:27.871,41.02,2.37,-109.53,20.61,64.33,-15.24,-0.22,1.01,1.04,1000
20:16:27.871,41.29,3.11,-109.66,22.5,60.43,-6.4,-0.24,0.99,1.07,1000
20:16:27.871,41.57,3.8,-109.7,24.21,53.41,0.85,-0.25,0.99,1.09,1000
20:16:27.871,41.84,4.39,-109.66,23.78,43.41,7.38,-0.26,0.97,1.1,1000
20:16:27.871,42.07,4.82,-109.56,20.73,32.44,13.05,-0.27,0.96,1.11,1000
20:16:27.871,42.24,5.15,-109.41,15.85,22.26,19.09,-0.28,0.94,1.12,1000
20:16:27.871,42.37,5.4,-109.18,8.9,13.54,24.21,-0.28,0.91,1.12,1000
20:16:27.871,42.41,5.56,-108.92,2.01,7.74,27.5,-0.29,0.89,1.11,1000
20:16:27.871,42.36,5.68,-108.58,-7.8,2.5,29.63,-0.3,0.86,1.08,1000
20:16:27.871,42.2,5.74,-108.28,-17.5,-1.34,30.91,-0.3,0.83,1.06,1000
20:16:27.871,41.92,5.77,-107.94,-25.73,-6.83,30.24,-0.36,0.76,1.07,1000
20:16:27.871,41.54,5.77,-107.61,-33.9,-9.09,28.96,-0.32,0.8,0.99,1000
20:16:27.882,41.13,5.73,-107.33,-42.87,-10.61,26.4,-0.33,0.73,1.01,1000
20:16:27.883,40.64,5.69,-107.07,-48.29,-11.52,23.78,-0.35,0.71,0.96,1000
20:16:27.896,40.06,5.61,-106.83,-52.07,-15.0,20.24,-0.34,0.69,0.94,1000
20:16:27.905,39.56,5.54,-106.66,-54.7,-15.0,17.01,-0.33,0.66,0.91,1000
20:16:27.917,38.98,5.45,-106.5,-56.28,-16.4,13.11,-0.32,0.64,0.9,1000
20:16:27.927,38.28,5.32,-106.36,-55.73,-18.17,8.78,-0.31,0.62,0.86,1000
20:16:27.938,37.64,5.22,-106.28,-54.63,-19.7,4.45,-0.31,0.59,0.84,1000
20:16:27.949,37.02,5.11,-106.25,-53.11,-20.18,0.49,-0.29,0.58,0.83,1000
20:16:27.960,36.42,5.0,-106.26,-50.18,-19.82,-3.11,-0.28,0.57,0.81,1000
20:16:27.974,35.86,4.89,-106.31,-46.4,-20.18,-6.28,-0.27,0.56,0.8,1000
20:16:27.983,35.35,4.77,-106.39,-42.26,-20.55,-8.72,-0.26,0.55,0.79,1000
20:16:27.993,34.9,4.66,-106.5,-37.5,-20.67,-11.46,-0.25,0.55,0.78,1000
20:16:28.007,34.5,4.53,-106.63,-32.62,-20.85,-12.87,-0.24,0.54,0.77,1000
20:16:28.019,34.16,4.41,-106.78,-27.26,-20.18,-13.66,-0.23,0.54,0.77,1000
20:16:28.026,33.88,4.28,-106.93,-22.13,-19.45,-13.6,-0.23,0.54,0.76,1000
20:16:28.037,33.66,4.17,-107.08,-16.65,-17.99,-13.66,-0.22,0.54,0.76,1000
20:16:28.048,33.51,4.08,-107.23,-11.34,-16.22,-15.0,-0.22,0.56,0.76,1000
20:16:28.060,33.41,4.0,-107.41,-8.11,-14.7,-17.07,-0.21,0.58,0.77,1000
20:16:28.255,33.35,3.92,-107.6,-6.71,-13.48,-19.02,-0.19,0.59,0.77,1000
20:16:28.255,33.3,3.86,-107.82,-7.56,-12.56,-19.7,-0.17,0.58,0.77,1000
20:16:28.255,33.23,3.79,-108.03,-9.51,-11.4,-19.21,-0.15,0.58,0.78,1000
20:16:28.255,33.14,3.74,-108.24,-11.95,-9.76,-17.93,-0.15,0.58,0.79,1000
20:16:28.255,33.03,3.7,-108.43,-14.21,-8.17,-16.22,-0.14,0.58,0.79,1000
20:16:28.255,32.88,3.66,-108.6,-16.4,-6.59,-14.7,-0.12,0.58,0.8,1000
20:16:28.255,32.73,3.64,-108.76,-17.93,-5.24,-13.35,-0.12,0.58,0.8,1000
20:16:28.255,32.55,3.63,-108.9,-19.15,-4.45,-11.65,-0.11,0.57,0.8,1000
20:16:28.255,32.37,3.61,-109.02,-20.55,-4.63,-9.27,-0.12,0.57,0.8,1000
20:16:28.255,32.17,3.59,-109.11,-21.83,-5.67,-6.83,-0.12,0.57,0.8,1000
20:16:28.255,31.96,3.56,-109.17,-21.77,-5.98,-4.15,-0.12,0.56,0.8,1000
20:16:28.255,31.75,3.53,-109.21,-20.73,-6.59,-1.89,-0.12,0.55,0.79,1000
20:16:28.255,31.57,3.5,-109.22,-18.54,-6.65,0.0,-0.13,0.55,0.79,1000
20:16:28.255,31.41,3.46,-109.21,-15.12,-6.89,1.89,-0.14,0.54,0.79,1000
20:16:28.255,31.29,3.43,-109.18,-11.28,-7.32,2.93,-0.14,0.54,0.78,1000
20:16:28.255,31.21,3.39,-109.15,-7.07,-7.56,3.35,-0.15,0.53,0.77,1000
20:16:28.255,31.18,3.36,-109.11,-2.8,-7.99,3.78,-0.15,0.53,0.77,1000
20:16:28.257,31.2,3.33,-109.07,1.4,-7.8,3.66,-0.15,0.53,0.77,1000
20:16:28.268,31.26,3.3,-109.02,5.61,-7.32,3.54,-0.15,0.53,0.77,1000
20:16:28.281,31.37,3.28,-108.99,9.02,-6.34,2.8,-0.16,0.53,0.78,1000
20:16:28.291,31.51,3.27,-108.96,12.62,-5.43,2.56,-0.15,0.53,0.78,1000
20:16:28.302,31.68,3.28,-108.94,15.18,-4.33,1.52,-0.14,0.53,0.79,1000
20:16:28.312,31.88,3.29,-108.92,17.07,-3.48,1.1,-0.14,0.54,0.79,1000
20:16:28.326,32.09,3.31,-108.91,17.38,-2.5,0.43,-0.14,0.54,0.79,1000
20:16:28.338,32.29,3.34,-108.91,16.52,-1.34,0.43,-0.14,0.55,0.8,1000
20:16:28.345,32.48,3.37,-108.9,15.55,0.37,0.73,-0.14,0.56,0.81,1000
20:16:28.356,32.66,3.43,-108.89,14.7,2.38,0.85,-0.15,0.56,0.82,1000
20:16:28.367,32.83,3.52,-108.88,13.17,4.21,0.79,-0.16,0.57,0.83,1000
20:16:28.378,32.97,3.62,-108.88,11.1,5.18,0.49,-0.16,0.57,0.84,1000
20:16:28.393,33.1,3.73,-108.87,8.96,5.49,-0.49,-0.17,0.58,0.84,1000
20:16:28.400,33.19,3.84,-108.88,6.89,5.18,-1.52,-0.17,0.58,0.85,1000
20:16:28.411,33.27,3.95,-108.91,5.06,4.51,-2.62,-0.16,0.58,0.86,1000
20:16:28.422,33.32,4.04,-108.94,3.11,3.35,-3.78,-0.17,0.58,0.86,1000
20:16:28.433,33.34,4.12,-108.98,0.18,1.71,-4.15,-0.17,0.58,0.87,1000
20:16:28.444,33.33,4.18,-109.03,-2.32,0.49,-4.09,-0.17,0.57,0.88,1000
20:16:28.455,33.29,4.23,-109.08,-4.63,-1.1,-4.76,-0.17,0.58,0.88,1000
20:16:28.466,33.23,4.26,-109.13,-6.46,-2.62,-5.24,-0.16,0.57,0.88,1000
20:16:28.477,33.15,4.27,-109.19,-7.99,-4.15,-5.49,-0.15,0.56,0.88,1000
20:16:28.491,33.05,4.26,-109.25,-9.39,-5.67,-5.61,-0.15,0.56,0.87,1000
20:16:28.499,32.94,4.24,-109.31,-10.85,-6.28,-5.0,-0.14,0.56,0.87,1000
20:16:28.512,32.81,4.21,-109.36,-11.89,-6.59,-3.9,-0.13,0.56,0.86,1000
20:16:28.521,32.67,4.17,-109.4,-12.56,-5.85,-2.56,-0.14,0.56,0.86,1000
20:16:28.532,32.54,4.15,-109.42,-13.23,-4.88,-1.46,-0.14,0.56,0.86,1000
20:16:28.545,32.39,4.14,-109.43,-13.66,-3.17,-0.67,-0.15,0.57,0.85,1000
20:16:28.554,32.24,4.14,-109.44,-13.9,-1.46,-0.73,-0.15,0.57,0.86,1000
20:16:28.565,32.1,4.18,-109.45,-13.72,0.24,-0.55,-0.16,0.57,0.85,1000
20:16:28.576,31.96,4.23,-109.46,-13.72,1.95,-0.24,-0.17,0.57,0.86,1000
20:16:28.596,31.82,4.3,-109.46,-13.35,3.29,0.12,-0.17,0.57,0.86,1000
20:16:28.598,31.69,4.39,-109.45,-13.23,3.72,0.43,-0.17,0.57,0.86,1000
20:16:28.610,31.56,4.48,-109.45,-12.56,3.96,0.37,-0.18,0.57,0.88,1000
20:16:28.620,31.44,4.56,-109.44,-11.1,4.27,0.61,-0.18,0.57,0.89,1000
20:16:28.634,31.34,4.66,-109.44,-10.0,4.76,0.43,-0.18,0.57,0.89,1000
20:16:28.648,31.24,4.76,-109.43,-10.18,4.88,0.18,-0.17,0.58,0.9,1000
20:16:28.654,31.13,4.85,-109.43,-12.13,4.82,0.37,-0.16,0.58,0.91,1000
20:16:28.664,31.0,4.95,-109.42,-15.18,5.12,1.52,-0.15,0.58,0.93,1000
20:16:28.675,30.83,5.04,-109.4,-18.78,5.43,3.72,-0.15,0.59,0.93,1000
20:16:28.691,30.62,5.13,-109.35,-22.2,5.61,5.98,-0.15,0.58,0.94,1000
20:16:28.701,30.37,5.22,-109.27,-25.18,5.61,8.11,-0.15,0.58,0.95,1000
20:16:28.710,30.1,5.31,-109.18,-27.38,5.3,9.76,-0.16,0.59,0.95,1000
20:16:28.719,29.81,5.39,-109.06,-28.96,4.63,11.04,-0.16,0.58,0.96,1000
20:16:28.730,29.5,5.46,-108.94,-30.37,3.41,11.95,-0.16,0.57,0.96,1000
20:16:28.741,29.17,5.51,-108.8,-32.68,1.28,12.93,-0.16,0.56,0.96,1000
20:16:28.752,28.81,5.54,-108.65,-35.18,-1.34,13.54,-0.16,0.54,0.95,1000
20:16:28.764,28.43,5.54,-108.5,-36.83,-3.9,14.82,-0.16,0.53,0.95,1000
20:16:28.776,28.04,5.51,-108.33,-37.2,-5.85,15.79,-0.17,0.51,0.94,1000
20:16:28.785,27.64,5.47,-108.15,-35.91,-7.01,16.4,-0.17,0.5,0.93,1000
20:16:28.804,27.27,5.42,-107.98,-34.33,-7.74,15.73,-0.16,0.49,0.92,1000
20:16:28.807,26.91,5.37,-107.81,-32.44,-8.29,15.0,-0.16,0.48,0.91,1000
20:16:28.818,26.57,5.31,-107.65,-30.73,-8.96,13.84,-0.15,0.46,0.89,1000
20:16:28.830,26.25,5.24,-107.5,-29.7,-9.76,13.29,-0.15,0.45,0.88,1000
20:16:28.841,25.94,5.17,-107.36,-28.84,-9.51,12.26,-0.14,0.44,0.86,1000
20:16:28.851,25.64,5.11,-107.22,-27.68,-7.74,11.1,-0.15,0.43,0.86,1000
20:16:28.863,25.35,5.07,-107.11,-26.1,-3.35,9.57,-0.15,0.43,0.85,1000
20:16:28.873,25.1,5.08,-107.02,-24.51,1.89,8.23,-0.15,0.43,0.85,1000
20:16:28.884,24.86,5.15,-106.93,-22.99,7.62,7.26,-0.16,0.44,0.86,1000
20:16:28.895,24.63,5.3,-106.86,-21.59,12.13,5.67,-0.18,0.44,0.87,1000
20:16:28.907,24.42,5.49,-106.81,-19.82,15.3,3.6,-0.19,0.45,0.89,1000
20:16:28.917,24.23,5.71,-106.78,-16.77,17.26,1.34,-0.21,0.46,0.92,1000
20:16:28.928,24.08,5.95,-106.78,-13.96,16.65,-2.32,-0.21,0.49,0.94,1000
20:16:28.940,23.96,6.17,-106.82,-12.5,14.7,-7.01,-0.19,0.49,0.97,1000
20:16:28.957,23.85,6.36,-106.91,-12.87,12.62,-9.88,-0.17,0.49,1.0,1000
20:16:28.961,23.72,6.52,-107.02,-15.3,11.04,-9.94,-0.14,0.49,1.02,1000
20:16:28.972,23.55,6.65,-107.13,-20.61,10.18,-7.93,-0.12,0.5,1.05,1000
20:16:28.983,23.32,6.77,-107.2,-26.4,10.18,-4.76,-0.12,0.5,1.07,1000
20:16:29.207,23.03,6.88,-107.23,-31.1,10.85,-0.37,-0.12,0.5,1.09,1000
20:16:29.208,22.69,7.0,-107.21,-34.33,11.4,5.24,-0.13,0.5,1.1,1000
20:16:29.208,22.33,7.12,-107.14,-35.79,10.67,9.76,-0.14,0.49,1.11,1000
20:16:29.208,21.95,7.22,-107.01,-36.22,7.99,13.35,-0.16,0.48,1.11,1000
20:16:29.208,21.58,7.28,-106.86,-35.37,3.17,15.91,-0.17,0.47,1.11,1000
20:16:29.208,21.21,7.29,-106.67,-33.9,-2.8,17.8,-0.19,0.46,1.1,1000
20:16:29.208,20.87,7.24,-106.47,-31.71,-9.27,19.15,-0.2,0.45,1.1,1000
20:16:29.208,20.54,7.13,-106.26,-29.57,-15.24,19.21,-0.21,0.44,1.09,1000
20:16:29.208,20.24,6.96,-106.05,-28.17,-20.24,18.54,-0.2,0.43,1.08,1000
20:16:29.208,19.95,6.75,-105.85,-27.74,-23.72,17.5,-0.2,0.42,1.06,1000
20:16:29.208,19.66,6.51,-105.66,-27.68,-25.12,16.71,-0.19,0.41,1.05,1000
20:16:29.208,19.38,6.27,-105.48,-28.29,-24.45,16.1,-0.18,0.41,1.03,1000
20:16:29.208,19.08,6.04,-105.31,-29.21,-22.74,15.3,-0.17,0.4,1.01,1000
20:16:29.208,18.78,5.83,-105.14,-29.94,-20.49,14.45,-0.16,0.39,1.0,1000
20:16:29.208,18.5,5.66,-105.0,-31.16,-18.41,13.6,-0.15,0.39,0.99,1000
20:16:29.208,18.15,5.48,-104.85,-32.44,-16.16,12.07,-0.14,0.38,0.99,1000
20:16:29.208,17.82,5.35,-104.72,-33.66,-13.9,11.46,-0.13,0.36,0.98,1000
20:16:29.208,17.48,5.22,-104.59,-35.12,-12.32,11.46,-0.12,0.36,0.98,1000
20:16:29.208,17.12,5.12,-104.47,-36.65,-10.85,11.46,-0.12,0.35,0.97,1000
20:16:29.213,16.74,5.02,-104.34,-37.74,-10.12,11.59,-0.12,0.34,0.98,1000
20:16:29.215,16.35,4.93,-104.21,-38.11,-9.7,11.28,-0.12,0.34,0.96,1000
20:16:29.225,15.97,4.84,-104.09,-38.41,-9.45,10.61,-0.13,0.33,0.96,1000
20:16:29.236,15.58,4.76,-103.98,-37.93,-9.45,9.45,-0.13,0.33,0.95,1000
20:16:29.247,15.2,4.68,-103.88,-37.93,-9.94,7.93,-0.13,0.33,0.95,1000
20:16:29.258,14.86,4.6,-103.81,-36.83,-9.82,6.59,-0.13,0.32,0.96,1000
20:16:29.271,14.51,4.53,-103.74,-34.63,-8.66,5.55,-0.13,0.31,0.96,1000
20:16:29.280,14.21,4.47,-103.69,-31.95,-7.38,5.43,-0.13,0.3,0.96,1000
20:16:29.291,13.91,4.42,-103.63,-29.45,-7.13,5.3,-0.12,0.3,0.96,1000
20:16:29.305,13.63,4.36,-103.57,-26.77,-8.41,5.0,-0.11,0.29,0.97,1000
20:16:29.313,13.38,4.28,-103.51,-24.33,-9.51,4.88,-0.1,0.28,0.99,1000
20:16:29.324,13.16,4.19,-103.46,-22.44,-10.12,5.91,-0.09,0.27,1.0,1000
20:16:29.335,12.95,4.09,-103.38,-21.16,-10.79,8.11,-0.08,0.27,1.0,1000
20:16:29.346,12.74,3.98,-103.29,-20.43,-10.91,10.06,-0.08,0.27,1.01,1000
20:16:29.357,12.55,3.87,-103.17,-19.76,-11.1,12.2,-0.08,0.27,1.02,1000
20:16:29.368,12.36,3.75,-103.02,-18.9,-11.16,14.27,-0.08,0.26,1.02,1000
20:16:29.379,12.18,3.63,-102.86,-17.74,-12.26,15.98,-0.08,0.26,1.02,1000
20:16:29.391,12.02,3.5,-102.67,-17.01,-14.82,17.44,-0.08,0.25,1.02,1000
20:16:29.590,11.87,3.35,-102.5,-15.79,-17.26,17.8,-0.07,0.25,1.03,1000
20:16:29.590,11.73,3.16,-102.3,-14.15,-19.21,18.54,-0.08,0.25,1.03,1000
20:16:29.590,11.6,2.95,-102.09,-13.11,-21.22,19.09,-0.08,0.24,1.02,1000
20:16:29.590,11.48,2.73,-101.88,-12.32,-22.99,19.7,-0.08,0.24,1.02,1000
20:16:29.590,11.36,2.48,-101.66,-11.89,-24.09,20.3,-0.07,0.23,1.03,1000
20:16:29.590,11.26,2.26,-101.45,-11.34,-24.39,20.37,-0.06,0.23,1.03,1000
20:16:29.590,11.14,1.98,-101.21,-11.52,-24.94,20.18,-0.05,0.22,1.02,1000
20:16:29.590,11.05,1.76,-101.03,-12.93,-26.34,20.06,-0.05,0.22,1.01,1000
20:16:29.590,10.91,1.47,-100.81,-14.63,-27.56,19.76,-0.04,0.23,1.01,1000
20:16:29.590,10.76,1.18,-100.59,-16.46,-27.74,19.7,-0.03,0.22,1.0,1000
20:16:29.590,10.59,0.89,-100.38,-19.33,-27.26,19.76,-0.03,0.23,0.99,1000
20:16:29.590,10.38,0.6,-100.16,-22.87,-26.4,19.57,-0.03,0.23,0.99,1000
20:16:29.590,10.14,0.33,-99.95,-26.83,-25.24,18.96,-0.03,0.24,0.97,1000
20:16:29.590,9.86,0.08,-99.74,-31.16,-23.11,17.93,-0.03,0.24,0.96,1000
20:16:29.590,9.54,-0.15,-99.54,-35.12,-20.55,17.38,-0.04,0.24,0.96,1000
20:16:29.590,9.18,-0.34,-99.35,-38.41,-17.8,17.07,-0.02,0.22,0.95,1000
20:16:29.590,8.8,-0.5,-99.16,-39.21,-14.27,17.2,-0.01,0.21,0.96,1000
20:16:29.590,8.42,-0.62,-98.98,-38.17,-11.46,16.59,0.0,0.19,0.96,1000
20:16:29.599,8.04,-0.72,-98.8,-36.89,-9.82,16.1,0.01,0.17,0.95,1000
20:16:29.612,7.67,-0.82,-98.62,-35.37,-10.0,16.1,0.02,0.15,0.95,1000
20:16:29.622,7.32,-0.93,-98.44,-32.8,-10.91,17.01,0.03,0.12,0.95,1000
20:16:29.633,7.0,-1.05,-98.25,-28.29,-11.71,18.29,0.03,0.11,0.96,1000
20:16:29.643,6.72,-1.19,-98.04,-23.17,-13.29,18.72,0.03,0.1,0.96,1000
20:16:29.657,6.5,-1.35,-97.83,-18.17,-15.61,18.9,0.04,0.1,0.96,1000
20:16:29.665,6.32,-1.53,-97.62,-12.8,-17.38,19.45,0.04,0.09,0.97,1000
20:16:29.676,6.2,-1.73,-97.41,-8.17,-18.41,19.94,0.04,0.08,0.96,1000
20:16:29.687,6.12,-1.94,-97.19,-4.57,-19.51,20.24,0.05,0.09,0.96,1000
20:16:29.698,6.07,-2.17,-96.96,-2.68,-20.43,20.24,0.05,0.09,0.96,1000
20:16:29.712,6.04,-2.39,-96.74,-1.77,-20.49,20.73,0.05,0.1,0.97,1000
20:16:29.723,6.02,-2.62,-96.51,-0.73,-19.76,21.1,0.05,0.1,0.98,1000
20:16:29.731,6.01,-2.84,-96.28,0.0,-18.6,20.67,0.06,0.1,0.98,1000
20:16:29.742,6.01,-3.04,-96.05,-0.3,-17.74,20.12,0.07,0.1,0.98,1000
20:16:29.754,6.0,-3.24,-95.84,-1.59,-16.34,19.21,0.08,0.1,0.99,1000
20:16:29.766,5.97,-3.41,-95.63,-3.66,-14.76,18.66,0.07,0.09,0.99,1000
20:16:29.775,5.91,-3.57,-95.42,-7.26,-13.41,18.41,0.08,0.09,0.99,1000
20:16:29.788,5.81,-3.72,-95.22,-11.16,-12.01,18.23,0.08,0.08,1.0,1000
20:16:29.797,5.67,-3.85,-95.02,-15.18,-10.18,17.2,0.08,0.09,0.99,1000
20:16:29.808,5.48,-3.96,-94.84,-18.48,-8.6,15.61,0.08,0.08,1.0,1000
20:16:29.824,5.26,-4.05,-94.67,-21.4,-7.68,14.09,0.08,0.07,1.0,1000
20:16:29.831,5.01,-4.14,-94.52,-23.48,-7.44,12.93,0.08,0.06,0.99,1000
20:16:29.842,4.74,-4.23,-94.38,-24.45,-8.17,12.38,0.07,0.06,1.0,1000
20:16:29.852,4.46,-4.32,-94.25,-24.76,-9.88,11.46,0.07,0.06,0.99,1000
20:16:29.863,4.23,-4.42,-94.15,-24.51,-12.32,10.0,0.07,0.05,0.99,1000
20:16:29.877,3.96,-4.57,-94.05,-23.23,-15.43,8.9,0.08,0.03,0.99,1000
20:16:29.885,3.7,-4.75,-93.96,-21.28,-17.68,7.13,0.09,0.04,0.97,1000
20:16:29.897,3.45,-4.95,-93.89,-21.16,-19.63,4.7,0.1,0.03,0.97,1000
20:16:29.908,3.21,-5.17,-93.85,-20.61,-19.76,2.56,0.09,0.02,0.97,1000
20:16:30.168,2.98,-5.38,-93.83,-19.27,-18.48,1.28,0.1,0.02,0.96,1000
20:16:30.168,2.76,-5.58,-93.82,-17.38,-16.04,0.55,0.11,0.03,0.96,1000
20:16:30.168,2.57,-5.75,-93.81,-15.24,-14.82,-0.24,0.11,0.03,0.95,1000
20:16:30.168,2.4,-5.91,-93.82,-12.07,-13.9,-0.85,0.11,0.03,0.95,1000
20:16:30.168,2.28,-6.07,-93.83,-8.05,-13.11,-1.77,0.12,0.04,0.96,1000
20:16:30.168,2.21,-6.21,-93.85,-4.27,-12.32,-2.32,0.13,0.03,0.96,1000
20:16:30.168,2.17,-6.36,-93.88,-1.34,-12.26,-2.13,0.14,0.04,0.97,1000
20:16:30.168,2.16,-6.51,-93.9,-0.12,-12.56,-1.95,0.14,0.05,0.96,1000
20:16:30.168,2.17,-6.66,-93.92,0.67,-12.26,-0.79,0.14,0.05,0.98,1000
20:16:30.168,2.19,-6.8,-93.92,2.26,-10.67,0.79,0.15,0.05,0.99,1000
20:16:30.168,2.22,-6.93,-93.9,3.35,-9.33,3.05,0.15,0.06,1.0,1000
20:16:30.168,2.28,-7.04,-93.86,4.33,-8.72,5.61,0.15,0.06,1.0,1000
20:16:30.168,2.34,-7.15,-93.79,4.94,-9.33,7.68,0.16,0.06,1.01,1000
20:16:30.168,2.4,-7.27,-93.69,5.24,-11.16,9.45,0.16,0.06,1.02,1000
20:16:30.168,2.47,-7.42,-93.58,4.94,-13.54,10.85,0.15,0.07,1.02,1000
20:16:30.168,2.54,-7.59,-93.46,5.0,-15.24,12.07,0.15,0.07,1.03,1000
20:16:30.168,2.6,-7.77,-93.32,4.7,-16.77,13.78,0.14,0.08,1.03,1000
20:16:30.168,2.67,-7.96,-93.16,4.63,-17.13,15.0,0.15,0.08,1.03,1000
20:16:30.168,2.73,-8.15,-92.99,3.78,-17.68,16.46,0.14,0.07,1.03,1000
20:16:30.168,2.78,-8.34,-92.8,3.17,-17.93,17.44,0.15,0.07,1.04,1000
20:16:30.168,2.83,-8.54,-92.59,2.99,-18.41,18.54,0.15,0.06,1.04,1000
20:16:30.168,2.87,-8.74,-92.4,3.11,-19.88,19.39,0.17,0.05,1.04,1000
20:16:30.168,2.91,-8.96,-92.18,2.74,-21.59,19.82,0.17,0.05,1.04,1000
20:16:30.171,2.94,-9.21,-91.96,1.95,-23.41,20.55,0.17,0.05,1.03,1000
20:16:30.182,2.96,-9.47,-91.73,1.34,-24.51,22.2,0.18,0.05,1.04,1000
20:16:30.193,2.97,-9.74,-91.48,1.34,-24.27,23.48,0.17,0.06,1.03,1000
20:16:30.204,2.98,-9.99,-91.22,1.1,-23.11,24.51,0.16,0.06,1.04,1000
20:16:30.215,3.0,-10.23,-90.95,1.46,-20.91,24.88,0.17,0.06,1.04,1000
20:16:30.411,3.02,-10.44,-90.67,2.38,-18.35,25.61,0.17,0.06,1.04,1000
20:16:30.411,3.05,-10.62,-90.39,3.11,-17.01,25.18,0.17,0.06,1.04,1000
20:16:30.411,3.09,-10.79,-90.11,3.6,-16.65,24.7,0.17,0.07,1.05,1000
20:16:30.411,3.13,-10.96,-89.84,3.72,-17.07,24.09,0.17,0.06,1.06,1000
20:16:30.411,3.17,-11.13,-89.58,3.9,-17.8,24.39,0.18,0.06,1.07,1000
20:16:30.411,3.22,-11.31,-89.31,4.02,-18.72,24.09,0.18,0.06,1.07,1000
20:16:30.411,3.26,-11.51,-89.05,2.74,-21.1,23.54,0.19,0.07,1.06,1000
20:16:30.411,3.28,-11.73,-88.79,1.16,-24.15,23.23,0.19,0.07,1.07,1000
20:16:30.411,3.28,-11.99,-88.54,-1.65,-27.87,22.62,0.21,0.07,1.06,1000
20:16:30.411,3.26,-12.29,-88.29,-4.27,-30.55,21.95,0.23,0.07,1.05,1000
20:16:30.411,3.2,-12.63,-88.05,-7.32,-32.68,21.22,0.25,0.06,1.05,1000
20:16:30.411,3.11,-12.98,-87.82,-11.04,-33.84,21.22,0.25,0.06,1.04,1000
20:16:30.411,2.97,-13.35,-87.59,-14.94,-33.78,21.52,0.25,0.05,1.04,1000
20:16:30.411,2.8,-13.72,-87.35,-18.6,-32.93,22.5,0.26,0.05,1.03,1000
20:16:30.411,2.58,-14.07,-87.1,-21.95,-32.01,23.23,0.25,0.05,1.02,1000
20:16:30.411,2.33,-14.41,-86.84,-24.7,-31.52,24.45,0.25,0.03,1.02,1000
20:16:30.411,2.05,-14.75,-86.57,-26.1,-31.04,24.88,0.27,0.01,1.01,1000
20:16:30.413,1.76,-15.08,-86.29,-27.2,-31.34,25.12,0.27,-0.01,1.0,1000
20:16:30.661,1.44,-15.42,-86.02,-28.84,-31.95,24.02,0.27,-0.01,0.99,1000
20:16:30.661,1.11,-15.77,-85.76,-29.33,-32.2,23.11,0.27,-0.03,0.99,1000
20:16:30.661,0.78,-16.12,-85.51,-29.27,-33.17,21.52,0.26,-0.04,0.97,1000
20:16:30.661,0.44,-16.47,-85.28,-29.51,-34.33,20.0,0.26,-0.04,0.97,1000
20:16:30.661,0.13,-16.8,-85.09,-28.9,-34.76,18.35,0.29,-0.05,0.96,1000
20:16:30.661,-0.18,-17.14,-84.9,-28.41,-34.21,17.56,0.29,-0.05,0.96,1000
20:16:30.661,-0.53,-17.53,-84.7,-28.29,-33.11,17.07,0.32,-0.04,0.95,1000
20:16:30.661,-0.86,-17.88,-84.51,-28.54,-32.38,17.56,0.32,-0.04,0.94,1000
20:16:30.661,-1.19,-18.24,-84.3,-29.27,-32.13,19.76,0.33,-0.04,0.94,1000
20:16:30.661,-1.52,-18.59,-84.07,-29.76,-32.2,22.8,0.34,-0.05,0.93,1000
20:16:30.661,-1.83,-18.92,-83.84,-29.09,-32.32,24.57,0.34,-0.05,0.92,1000
20:16:30.661,-2.15,-19.28,-83.56,-27.93,-32.32,25.12,0.35,-0.06,0.92,1000
20:16:30.661,-2.46,-19.63,-83.28,-26.22,-31.71,25.85,0.35,-0.07,0.91,1000
20:16:30.661,-2.74,-19.99,-83.0,-24.45,-30.98,26.52,0.35,-0.07,0.91,1000
20:16:30.661,-3.01,-20.33,-82.7,-22.5,-30.06,27.2,0.35,-0.07,0.91,1000
20:16:30.661,-3.26,-20.66,-82.4,-20.67,-29.57,27.44,0.37,-0.08,0.9,1000
20:16:30.661,-3.49,-20.99,-82.1,-19.76,-29.76,27.68,0.38,-0.09,0.9,1000
20:16:30.661,-3.72,-21.33,-81.79,-20.24,-29.82,28.66,0.38,-0.11,0.89,1000
20:16:30.661,-3.93,-21.63,-81.49,-20.43,-28.23,30.37,0.38,-0.11,0.88,1000
20:16:30.661,-4.17,-21.94,-81.16,-19.82,-25.67,30.37,0.38,-0.11,0.88,1000
20:16:30.661,-4.4,-22.21,-80.83,-18.96,-23.05,28.9,0.39,-0.12,0.87,1000
20:16:30.661,-4.63,-22.47,-80.52,-18.54,-21.59,26.77,0.39,-0.13,0.86,1000
20:16:30.667,-4.84,-22.71,-80.23,-16.59,-20.24,24.82,0.39,-0.14,0.87,1000
20:16:30.681,-5.04,-22.94,-79.96,-13.6,-19.21,23.84,0.39,-0.14,0.87,1000
20:16:30.688,-5.19,-23.15,-79.71,-9.33,-17.93,23.05,0.4,-0.14,0.9,1000
20:16:30.699,-5.3,-23.35,-79.46,-6.04,-18.05,22.07,0.42,-0.14,0.9,1000
20:16:30.710,-5.39,-23.56,-79.21,-4.88,-20.18,22.5,0.42,-0.14,0.92,1000
20:16:30.721,-5.46,-23.81,-78.96,-4.63,-24.51,24.33,0.42,-0.14,0.92,1000
20:16:30.740,-5.54,-24.1,-78.68,-3.84,-28.96,27.32,0.43,-0.15,0.93,1000
20:16:30.750,-5.6,-24.44,-78.36,-2.74,-33.72,29.88,0.43,-0.14,0.94,1000
20:16:30.754,-5.65,-24.79,-78.06,-2.2,-37.32,31.16,0.43,-0.13,0.94,1000
20:16:30.765,-5.69,-25.21,-77.71,-2.93,-40.49,32.2,0.44,-0.13,0.95,1000
20:16:30.777,-5.75,-25.66,-77.35,-5.0,-44.57,34.02,0.45,-0.14,0.93,1000
20:16:30.788,-5.84,-26.17,-76.97,-9.33,-49.45,35.73,0.47,-0.14,0.9,1000
20:16:30.798,-5.99,-26.73,-76.56,-15.55,-53.72,38.54,0.48,-0.16,0.88,1000
20:16:30.810,-6.2,-27.32,-76.13,-20.73,-55.12,41.34,0.48,-0.17,0.85,1000
20:16:30.823,-6.48,-27.93,-75.66,-25.12,-54.63,43.29,0.48,-0.19,0.81,1000
20:16:30.831,-6.8,-28.52,-75.18,-28.11,-52.32,44.15,0.49,-0.2,0.78,1000
20:16:31.032,-7.16,-29.1,-74.7,-29.63,-49.33,43.54,0.49,-0.23,0.74,1000
20:16:31.032,-7.54,-29.64,-74.22,-30.55,-45.98,43.23,0.48,-0.24,0.7,1000
20:16:31.032,-7.9,-30.1,-73.79,-31.77,-44.51,42.8,0.48,-0.27,0.66,1000
20:16:31.032,-8.36,-30.65,-73.28,-32.8,-42.99,42.38,0.48,-0.3,0.62,1000
20:16:31.032,-8.82,-31.14,-72.82,-32.5,-41.28,41.1,0.48,-0.34,0.59,1000
20:16:31.032,-9.28,-31.62,-72.38,-30.37,-38.54,38.66,0.49,-0.37,0.57,1000
20:16:31.032,-9.73,-32.06,-71.97,-27.2,-35.67,34.63,0.49,-0.38,0.54,1000
20:16:31.032,-10.17,-32.48,-71.61,-24.39,-33.05,29.76,0.49,-0.4,0.51,1000
20:16:31.032,-10.59,-32.87,-71.3,-21.77,-30.37,24.7,0.48,-0.41,0.48,1000
20:16:31.032,-11.0,-33.22,-71.06,-19.27,-27.26,18.41,0.47,-0.42,0.46,1000
20:16:31.032,-11.39,-33.54,-70.88,-17.44,-24.39,11.83,0.48,-0.43,0.44,1000
20:16:31.032,-11.75,-33.83,-70.78,-15.18,-19.94,4.02,0.5,-0.44,0.43,1000
20:16:31.032,-12.11,-34.06,-70.77,-12.62,-13.78,-3.54,0.5,-0.45,0.41,1000
20:16:31.032,-12.45,-34.23,-70.84,-9.88,-6.65,-9.33,0.5,-0.47,0.39,1000
20:16:31.032,-12.75,-34.31,-70.96,-6.71,2.13,-15.18,0.5,-0.46,0.38,1000
20:16:31.032,-13.02,-34.3,-71.16,-2.07,12.07,-21.16,0.51,-0.47,0.37,1000
20:16:31.032,-13.25,-34.17,-71.42,3.6,23.54,-28.23,0.51,-0.46,0.37,1000
20:16:31.032,-13.41,-33.92,-71.76,8.78,35.37,-35.12,0.5,-0.46,0.36,1000
20:16:31.046,-13.52,-33.55,-72.18,13.66,46.83,-41.04,0.49,-0.45,0.37,1000
20:16:31.061,-13.57,-33.05,-72.65,18.84,59.82,-46.83,0.47,-0.43,0.4,1000
20:16:31.062,-13.55,-32.47,-73.14,22.62,70.61,-52.68,0.46,-0.41,0.41,1000
20:16:31.074,-13.49,-31.65,-73.81,23.41,81.22,-60.12,0.46,-0.4,0.43,1000
20:16:31.086,-13.44,-30.79,-74.49,22.5,91.71,-65.85,0.46,-0.4,0.47,1000
20:16:31.095,-13.38,-30.06,-75.04,21.04,103.54,-70.98,0.43,-0.37,0.51,1000
20:16:31.106,-13.34,-28.94,-75.84,17.13,115.73,-75.91,0.39,-0.33,0.55,1000
20:16:31.117,-13.33,-27.69,-76.69,12.8,125.79,-79.94,0.39,-0.31,0.58,1000
20:16:31.128,-13.35,-26.44,-77.51,8.6,134.09,-83.11,0.38,-0.3,0.62,1000
20:16:31.139,-13.38,-25.0,-78.43,5.3,138.35,-85.12,0.36,-0.27,0.66,1000
20:16:31.157,-13.43,-23.52,-79.37,3.05,140.12,-85.37,0.34,-0.25,0.7,1000
20:16:31.163,-13.47,-22.02,-80.3,1.95,139.82,-84.82,0.29,-0.23,0.74,1000
20:16:31.172,-13.5,-20.52,-81.23,1.52,138.66,-83.96,0.26,-0.19,0.78,1000
20:16:31.183,-13.51,-19.02,-82.16,1.1,137.26,-83.78,0.23,-0.15,0.81,1000
20:16:31.194,-13.51,-17.52,-83.08,0.85,135.98,-83.96,0.21,-0.14,0.84,1000
20:16:31.205,-13.48,-16.04,-84.0,1.77,134.21,-82.68,0.18,-0.11,0.86,1000
20:16:31.224,-13.41,-14.57,-84.9,5.06,131.28,-81.16,0.14,-0.04,0.91,1000
20:16:31.227,-13.26,-13.12,-85.78,10.24,128.05,-79.45,0.14,-0.01,0.95,1000
20:16:31.240,-13.04,-11.72,-86.64,14.88,122.26,-75.49,0.15,0.0,1.0,1000
20:16:31.251,-12.75,-10.4,-87.44,16.77,114.82,-68.35,0.15,0.02,1.01,1000
20:16:31.262,-12.46,-9.16,-88.15,14.51,106.4,-59.39,0.15,0.03,1.05,1000
20:16:31.271,-12.19,-8.03,-88.76,10.37,98.78,-49.09,0.16,0.04,1.09,1000
20:16:31.282,-11.98,-6.98,-89.26,5.18,93.72,-39.76,0.14,0.08,1.12,1000
20:16:31.295,-11.81,-5.98,-89.66,-2.38,89.76,-31.71,0.13,0.09,1.14,1000
20:16:31.306,-11.74,-5.02,-89.98,-13.23,87.13,-25.0,0.1,0.13,1.15,1000
20:16:31.315,-11.79,-4.09,-90.23,-19.27,91.89,-19.09,0.09,0.06,1.2,1000
20:16:31.326,-11.98,-3.15,-90.41,-40.55,86.71,-13.17,0.05,0.13,1.25,1000
20:16:31.337,-12.27,-2.17,-90.54,-49.15,90.49,-8.54,0.04,0.13,1.18,1000
20:16:31.560,-12.72,-1.21,-90.61,-67.26,87.26,-2.26,0.01,0.05,1.18,1000
20:16:31.561,-13.33,-0.27,-90.6,-76.77,86.95,4.27,-0.0,0.03,1.2,1000
20:16:31.561,-13.99,0.59,-90.53,-85.24,86.89,9.82,-0.0,-0.0,1.2,1000
20:16:31.561,-14.8,1.52,-90.41,-92.2,84.94,13.41,-0.03,-0.02,1.18,1000
20:16:31.561,-15.67,2.42,-90.25,-95.67,82.5,16.77,-0.06,-0.08,1.17,1000
20:16:31.561,-16.6,3.3,-90.05,-98.6,78.11,20.67,-0.1,-0.12,1.15,1000
20:16:31.561,-17.55,4.13,-89.81,-99.7,73.84,23.41,-0.12,-0.16,1.12,1000
20:16:31.561,-18.52,4.92,-89.54,-98.66,69.94,24.15,-0.14,-0.19,1.11,1000
20:16:31.561,-19.47,5.67,-89.28,-95.85,67.32,23.6,-0.17,-0.22,1.08,1000
20:16:31.561,-20.4,6.41,-89.03,-92.56,66.28,22.2,-0.19,-0.25,1.07,1000
20:16:31.561,-21.29,7.16,-88.79,-88.41,66.95,20.61,-0.19,-0.28,1.06,1000
20:16:31.561,-22.16,7.91,-88.57,-85.24,67.8,19.27,-0.22,-0.31,1.04,1000
20:16:31.561,-23.0,8.67,-88.36,-81.89,67.62,18.11,-0.23,-0.35,1.04,1000
20:16:31.561,-23.8,9.43,-88.17,-75.37,67.5,17.32,-0.26,-0.39,1.05,1000
20:16:31.561,-24.52,10.19,-87.98,-67.01,65.0,16.16,-0.29,-0.39,1.04,1000
20:16:31.561,-25.15,10.9,-87.81,-57.68,59.33,13.78,-0.3,-0.41,1.04,1000
20:16:31.561,-25.69,11.56,-87.67,-47.13,54.27,12.44,-0.31,-0.44,1.06,1000
20:16:31.561,-26.1,12.16,-87.53,-35.43,49.33,11.71,-0.32,-0.45,1.06,1000
20:16:31.561,-26.39,12.7,-87.4,-25.0,43.6,12.26,-0.32,-0.46,1.06,1000
20:16:31.561,-26.59,13.18,-87.26,-16.65,37.62,13.96,-0.33,-0.47,1.06,1000
20:16:31.568,-26.69,13.57,-87.09,-8.72,30.0,17.44,-0.34,-0.48,1.06,1000
20:16:31.579,-26.72,13.89,-86.89,-1.77,22.44,21.1,-0.34,-0.49,1.06,1000
20:16:31.590,-26.67,14.12,-86.63,5.79,15.18,25.06,-0.36,-0.51,1.06,1000
20:16:31.602,-26.54,14.28,-86.34,13.66,9.51,28.17,-0.36,-0.51,1.06,1000
20:16:31.618,-26.34,14.39,-86.03,20.43,5.55,28.54,-0.38,-0.49,1.05,1000
20:16:31.623,-26.07,14.47,-85.72,26.4,2.13,27.68,-0.39,-0.48,1.06,1000
20:16:31.634,-25.73,14.52,-85.42,32.13,0.67,26.46,-0.4,-0.48,1.06,1000
20:16:31.645,-25.33,14.56,-85.14,36.77,-1.28,24.45,-0.41,-0.46,1.05,1000
20:16:31.838,-24.89,14.57,-84.89,39.45,-4.33,21.22,-0.4,-0.45,1.05,1000
20:16:31.838,-24.42,14.56,-84.66,41.83,-6.4,18.78,-0.39,-0.43,1.05,1000
20:16:31.838,-23.93,14.52,-84.47,43.84,-8.35,16.1,-0.38,-0.41,1.04,1000
20:16:31.838,-23.42,14.46,-84.3,44.27,-9.7,14.21,-0.36,-0.39,1.04,1000
20:16:31.838,-22.9,14.4,-84.15,43.72,-9.51,13.41,-0.35,-0.37,1.05,1000
20:16:31.839,-22.4,14.33,-84.0,41.89,-8.35,14.27,-0.34,-0.35,1.04,1000
20:16:31.839,-21.92,14.29,-83.83,39.33,-5.73,15.55,-0.36,-0.4,1.12,1000
20:16:31.839,-21.49,14.3,-83.66,33.17,0.73,15.43,-0.37,-0.35,1.09,1000
20:16:31.839,-21.14,14.34,-83.5,22.87,1.77,14.76,-0.35,-0.34,1.15,1000
20:16:31.839,-20.89,14.39,-83.34,13.17,1.59,13.29,-0.36,-0.33,1.16,1000
20:16:31.839,-20.75,14.42,-83.2,3.84,0.43,11.1,-0.35,-0.33,1.13,1000
20:16:31.839,-20.7,14.44,-83.09,-6.1,-1.59,9.27,-0.34,-0.33,1.14,1000
20:16:31.839,-20.76,14.44,-83.0,-14.63,-1.46,7.87,-0.33,-0.33,1.13,1000
20:16:31.839,-20.91,14.44,-82.92,-22.8,-0.61,7.01,-0.33,-0.32,1.12,1000
20:16:31.839,-21.14,14.46,-82.84,-30.43,0.91,7.74,-0.32,-0.33,1.09,1000
20:16:31.839,-21.44,14.49,-82.74,-35.55,0.98,10.73,-0.31,-0.35,1.07,1000
20:16:31.839,-21.8,14.49,-82.61,-37.87,-2.8,12.99,-0.3,-0.35,1.05,1000
20:16:31.843,-22.18,14.44,-82.47,-37.62,-10.3,14.09,-0.28,-0.35,1.03,1000
20:16:31.855,-22.53,14.31,-82.35,-31.89,-20.06,0.91,-0.43,-0.55,0.98,1000
20:16:31.865,-22.85,14.12,-82.37,-33.23,-27.38,-6.28,-0.49,-0.4,0.87,1000
20:16:31.877,-23.25,13.85,-82.45,-33.72,-31.04,-6.95,-0.21,-0.4,0.97,1000
20:16:31.887,-23.55,13.56,-82.51,-26.22,-25.55,-6.59,-0.21,-0.43,0.95,1000
20:16:31.898,-23.74,13.37,-82.55,-23.11,-25.24,-2.8,-0.27,-0.36,0.86,1000
20:16:31.909,-24.0,13.11,-82.57,-27.26,-25.73,-1.83,-0.21,-0.43,0.81,1000
20:16:31.920,-24.29,12.87,-82.57,-25.18,-21.59,1.1,-0.21,-0.42,0.88,1000
20:16:31.931,-24.56,12.67,-82.55,-24.09,-16.77,3.54,-0.22,-0.4,0.78,1000
20:16:31.942,-24.83,12.5,-82.5,-20.18,-13.17,4.82,-0.16,-0.43,0.83,1000
20:16:31.953,-25.03,12.36,-82.43,-14.88,-8.9,8.41,-0.17,-0.36,0.79,1000
20:16:31.967,-25.18,12.26,-82.32,-11.22,-6.04,12.07,-0.13,-0.37,0.84,1000
20:16:31.979,-25.26,12.21,-82.17,-4.82,2.38,15.12,-0.18,-0.36,0.85,1000
20:16:31.988,-25.27,12.26,-81.99,-0.79,12.07,20.37,-0.21,-0.35,0.87,1000
20:16:31.997,-25.25,12.42,-81.75,1.22,19.7,23.11,-0.2,-0.41,0.84,1000
20:16:32.008,-25.23,12.65,-81.49,-2.56,22.56,24.33,-0.17,-0.38,0.82,1000
20:16:32.019,-25.23,12.94,-81.21,-4.51,29.02,26.1,-0.07,-0.34,0.81,1000
20:16:32.030,-25.25,13.29,-80.92,-5.12,40.49,27.8,-0.14,-0.27,0.8,1000
20:16:32.041,-25.27,13.74,-80.6,-7.74,47.07,30.18,-0.17,-0.25,0.77,1000
20:16:32.052,-25.01,13.93,-80.31,10.73,15.55,18.84,0.0,-0.35,0.98,1000
20:16:32.064,-24.24,13.61,-80.1,94.88,-78.41,18.72,-0.27,-0.27,0.73,1000
20:16:32.080,-23.44,13.07,-79.9,67.32,-38.23,17.07,0.34,0.35,0.69,1000
20:16:32.085,-22.75,12.94,-79.66,45.49,12.5,22.13,0.07,-0.06,0.71,1000
20:16:32.096,-22.05,13.0,-79.4,91.28,-33.9,24.39,0.28,0.49,1.24,1000
20:16:32.107,-21.0,12.84,-79.19,112.01,-47.32,16.4,-0.51,-0.56,0.73,1000
20:16:32.118,-19.86,12.61,-78.99,112.07,-33.84,18.9,0.03,0.19,0.63,1000
20:16:32.129,-18.91,12.58,-78.78,99.63,3.11,23.11,-0.44,-0.48,1.01,1000
20:16:32.140,-17.69,12.5,-78.54,117.26,-21.95,22.13,-0.52,-0.28,1.01,1000
20:16:32.151,-16.34,12.3,-78.32,108.78,-1.65,21.22,-0.21,0.11,1.42,1000
20:16:32.162,-15.19,12.29,-78.09,62.38,16.04,20.18,-0.5,-0.07,1.15,1000
20:16:32.178,-14.51,12.22,-77.83,51.16,-29.15,25.85,0.5,0.57,1.57,1000
20:16:32.184,-14.06,11.91,-77.59,0.91,-13.23,15.55,-0.29,-0.53,0.79,1000
20:16:32.195,-14.01,11.59,-77.46,29.02,-0.24,8.84,-0.39,-0.2,0.75,1000
20:16:32.206,-14.14,11.38,-77.39,-26.46,-22.44,5.3,-0.61,-0.36,0.62,1000
20:16:32.217,-14.47,11.26,-77.35,-29.09,-32.99,0.0,-0.18,-0.45,0.82,1000
20:16:32.228,-14.71,11.06,-77.36,-6.52,-33.9,-5.67,-0.35,-0.51,1.04,1000
20:16:32.239,-14.91,10.81,-77.42,-17.07,-15.18,-5.91,-0.23,-0.28,1.0,1000
20:16:32.250,-15.17,10.68,-77.5,-24.02,-0.61,-7.38,-0.42,-0.36,1.03,1000
20:16:32.261,-15.43,10.63,-77.58,-17.5,-10.85,-6.89,-0.32,-0.32,0.95,1000
20:16:32.274,-15.59,10.54,-77.65,-9.63,-15.3,-7.62,-0.27,-0.42,1.06,1000
20:16:32.284,-15.7,10.49,-77.74,-6.22,-5.73,-9.63,-0.26,-0.33,0.98,1000
20:16:32.294,-15.81,10.52,-77.85,-6.28,-3.29,-12.32,-0.33,-0.23,0.96,1000
20:16:32.305,-15.88,10.51,-78.0,-7.07,-8.96,-15.37,-0.3,-0.26,0.96,1000
20:16:32.319,-15.95,10.47,-78.19,-9.33,-8.72,-19.63,-0.27,-0.21,0.96,1000
20:16:32.327,-16.05,10.44,-78.42,-13.48,-8.48,-23.6,-0.32,-0.21,0.99,1000
20:16:32.338,-16.16,10.38,-78.69,-14.02,-10.79,-26.65,-0.3,-0.19,0.99,1000
20:16:32.349,-16.28,10.3,-78.99,-15.0,-14.15,-27.38,-0.24,-0.21,0.97,1000
20:16:32.360,-16.4,10.2,-79.29,-15.49,-13.48,-26.1,-0.2,-0.24,0.97,1000
20:16:32.372,-16.53,10.1,-79.56,-15.3,-10.85,-24.02,-0.21,-0.25,0.97,1000
20:16:32.388,-16.66,10.0,-79.81,-11.95,-10.67,-20.85,-0.15,-0.26,0.95,1000
20:16:32.403,-16.73,9.92,-80.02,-5.61,-5.12,-19.09,-0.13,-0.28,0.96,1000
20:16:32.404,-16.75,9.89,-80.23,1.77,2.13,-16.4,-0.12,-0.31,0.95,1000
20:16:32.415,-16.7,9.93,-80.4,7.5,8.23,-12.8,-0.17,-0.33,0.96,1000
20:16:32.426,-16.61,10.01,-80.51,13.84,11.4,-8.84,-0.18,-0.32,0.95,1000
20:16:32.437,-16.44,10.14,-80.59,19.27,13.41,-4.63,-0.12,-0.3,0.97,1000
20:16:32.449,-16.22,10.3,-80.63,24.63,18.29,-1.71,-0.15,-0.27,0.96,1000
20:16:32.459,-15.95,10.51,-80.63,27.93,22.07,1.1,-0.16,-0.27,0.97,1000
20:16:32.470,-15.64,10.75,-80.61,27.8,27.56,4.21,-0.19,-0.25,0.96,1000
20:16:32.481,-15.33,11.02,-80.55,26.59,26.83,7.07,-0.15,-0.21,1.04,1000
20:16:32.492,-15.01,11.29,-80.46,27.32,21.1,8.9,-0.2,-0.17,1.01,1000
20:16:32.503,-14.69,11.5,-80.36,25.85,17.8,9.94,-0.22,-0.16,1.0,1000
20:16:32.517,-14.4,11.67,-80.25,19.15,16.59,9.45,-0.27,-0.2,0.95,1000
20:16:32.525,-14.22,11.79,-80.16,11.04,8.17,8.48,-0.26,-0.13,0.98,1000
20:16:32.542,-14.09,11.88,-80.07,2.68,1.34,6.77,-0.29,-0.09,0.97,1000
20:16:32.547,-14.03,11.89,-80.0,-2.32,-3.05,4.82,-0.23,-0.16,0.97,1000
20:16:32.558,-14.01,11.88,-79.96,-5.06,-3.9,2.93,-0.21,-0.2,0.99,1000
20:16:32.569,-14.02,11.85,-79.94,-6.71,-5.0,0.43,-0.24,-0.2,0.98,1000
20:16:32.582,-14.05,11.81,-79.95,-6.46,-4.82,-3.29,-0.21,-0.19,1.01,1000
20:16:32.592,-14.09,11.76,-79.99,-5.73,-4.02,-4.15,-0.22,-0.24,0.98,1000
20:16:32.602,-14.1,11.74,-80.03,-2.74,-2.26,-3.6,-0.2,-0.23,0.98,1000
20:16:32.613,-14.1,11.73,-80.07,0.37,-0.24,-2.01,-0.18,-0.24,0.99,1000
20:16:32.627,-14.07,11.73,-80.08,1.71,1.46,-0.37,-0.18,-0.22,0.99,1000
20:16:32.635,-14.03,11.74,-80.08,2.32,2.44,1.1,-0.2,-0.22,0.99,1000
20:16:32.646,-13.98,11.77,-80.07,3.17,2.74,0.98,-0.22,-0.21,0.99,1000
20:16:32.657,-13.93,11.79,-80.06,2.74,2.32,0.73,-0.23,-0.2,0.99,1000
20:16:32.668,-13.89,11.81,-80.05,0.18,0.24,0.12,-0.23,-0.18,0.98,1000
20:16:32.900,-13.87,11.81,-80.05,-1.83,-1.22,-0.73,-0.24,-0.19,0.98,1000
20:16:32.901,-13.86,11.8,-80.07,-2.74,-1.95,-1.77,-0.22,-0.2,0.98,1000
20:16:32.901,-13.87,11.78,-80.08,-2.56,-1.52,-1.52,-0.21,-0.21,0.99,1000
20:16:32.901,-13.87,11.77,-80.1,-1.34,-0.85,-0.98,-0.2,-0.22,0.99,1000
20:16:32.901,-13.86,11.77,-80.11,-0.12,0.24,-0.37,-0.2,-0.22,0.99,1000
20:16:32.901,-13.84,11.77,-80.11,1.16,1.1,0.18,-0.2,-0.22,0.99,1000
20:16:32.901,-13.81,11.79,-80.11,1.46,1.46,0.37,-0.21,-0.21,0.99,1000
20:16:32.901,-13.77,11.8,-80.11,1.77,1.04,0.12,-0.22,-0.2,0.99,1000
20:16:32.901,-13.74,11.81,-80.11,0.3,0.55,-0.12,-0.23,-0.19,0.98,1000
20:16:32.901,-13.7,11.84,-80.1,7.5,9.51,2.5,-0.21,-0.28,1.02,1000
20:16:32.901,-13.58,11.95,-80.07,16.04,17.01,3.23,-0.1,-0.33,1.05,1000
20:16:32.901,-13.38,12.12,-80.04,15.61,12.32,2.99,-0.27,-0.15,0.98,1000
20:16:32.901,-13.27,12.21,-80.0,3.66,1.34,3.17,-0.29,-0.14,0.98,1000
20:16:32.901,-13.23,12.24,-79.97,-4.82,-2.62,1.22,-0.28,-0.13,0.97,1000
20:16:32.901,-13.26,12.21,-79.97,-10.91,-8.66,-1.34,-0.24,-0.13,0.98,1000
20:16:32.901,-13.34,12.13,-80.0,-14.39,-11.65,-4.57,-0.25,-0.15,0.97,1000
20:16:32.901,-13.48,12.02,-80.07,-15.3,-13.17,-7.26,-0.25,-0.22,1.02,1000
20:16:32.901,-13.6,11.87,-80.16,-12.44,-12.99,-7.5,-0.2,-0.25,1.04,1000
20:16:32.901,-13.68,11.77,-80.22,-8.23,-5.85,-6.95,-0.18,-0.26,0.97,1000
20:16:32.901,-13.73,11.73,-80.29,-1.34,0.06,-4.76,-0.14,-0.27,0.97,1000
20:16:32.901,-13.72,11.74,-80.32,4.39,3.96,-1.65,-0.15,-0.28,0.98,1000
20:16:32.913,-13.67,11.77,-80.33,7.2,6.04,1.28,-0.19,-0.25,1.0,1000
20:16:32.921,-13.58,11.83,-80.3,8.78,7.38,3.41,-0.2,-0.23,1.0,1000
20:16:32.934,-13.49,11.88,-80.27,7.5,5.67,3.66,-0.25,-0.2,0.99,1000
20:16:32.944,-13.41,11.93,-80.23,4.7,2.56,2.87,-0.25,-0.15,0.98,1000
20:16:32.954,-13.36,11.95,-80.21,-0.18,-0.24,1.59,-0.24,-0.14,0.98,1000
20:16:32.965,-13.35,11.94,-80.2,-4.82,-3.29,-0.55,-0.23,-0.17,0.99,1000
20:16:32.976,-13.38,11.91,-80.21,-6.16,-4.21,-2.74,-0.23,-0.2,0.98,1000
