Timestamp,Roll,Pitch,Yaw,Gyro_X,Gyro_Y,Gyro_Z,Accel_X,Accel_Y,Accel_Z,Throttle
16:08:49.402,17.54,-7.15,-112.57,-0.12,-0.06,-0.49,0.13,0.31,0.97,1000
16:08:49.404,17.54,-7.15,-112.57,-0.18,-0.3,-0.43,0.13,0.31,0.97,1000
16:08:49.405,17.54,-7.15,-112.57,-0.24,-0.18,-0.43,0.13,0.31,0.97,1000
16:08:49.410,17.54,-7.15,-112.57,-0.12,-0.18,-0.49,0.13,0.31,0.97,1000
16:08:49.410,17.54,-7.15,-112.57,-0.18,-0.18,-0.37,0.13,0.31,0.97,1000
16:08:49.411,17.54,-7.15,-112.57,-0.18,-0.18,-0.43,0.13,0.31,0.97,1000
16:08:49.414,17.54,-7.15,-112.57,-0.18,-0.24,-0.43,0.13,0.31,0.97,1000
16:08:49.416,17.54,-7.15,-112.57,-0.3,-0.18,-0.49,0.13,0.31,0.97,1000
16:08:49.419,17.54,-7.15,-112.57,-0.18,-0.24,-0.3,0.13,0.31,0.97,1000
16:08:49.419,17.54,-7.15,-112.57,-0.24,-0.12,-0.43,0.12,0.31,0.97,1000
16:08:49.421,17.54,-7.15,-112.57,-0.18,-0.3,-0.3,0.12,0.31,0.97,1000
16:08:49.424,17.54,-7.15,-112.57,-0.24,-0.12,-0.3,0.13,0.31,0.97,1000
16:08:49.426,17.54,-7.15,-112.57,-0.18,-0.18,-0.43,0.13,0.31,0.97,1000
16:08:49.429,17.54,-7.15,-112.57,-0.24,-0.18,-0.43,0.13,0.31,0.97,1000
16:08:49.429,17.54,-7.15,-112.57,-0.12,-0.18,-0.3,0.13,0.31,0.97,1000
16:08:49.432,17.54,-7.15,-112.57,-0.12,-0.18,-0.49,0.13,0.31,0.97,1000
16:08:49.434,17.54,-7.15,-112.57,-0.24,-0.3,-0.49,0.13,0.31,0.97,1000
16:08:49.436,17.54,-7.15,-112.58,-0.18,-0.3,-0.43,0.13,0.31,0.97,1000
16:08:49.437,17.54,-7.15,-112.58,-0.24,-0.12,-0.49,0.13,0.31,0.97,1000
16:08:49.439,17.54,-7.15,-112.58,-0.06,-0.06,-0.3,0.13,0.31,0.97,1000
16:08:49.441,17.54,-7.15,-112.58,-0.24,-0.3,-0.37,0.13,0.31,0.97,1000
16:08:49.443,17.54,-7.15,-112.58,-0.18,-0.3,-0.43,0.13,0.31,0.97,1000
16:08:49.446,17.54,-7.15,-112.58,-0.18,-0.18,-0.37,0.13,0.31,0.97,1000
16:08:49.448,17.54,-7.15,-112.58,-0.18,-0.18,-0.37,0.13,0.31,0.97,1000
16:08:49.450,17.54,-7.15,-112.58,-0.18,-0.18,-0.43,0.13,0.31,0.97,1000
16:08:49.451,17.54,-7.15,-112.58,-0.18,-0.18,-0.55,0.13,0.31,0.97,1000
16:08:49.454,17.54,-7.15,-112.58,-0.18,-0.24,-0.37,0.13,0.31,0.97,1000
16:08:49.456,17.54,-7.15,-112.58,-0.24,-0.37,-0.49,0.13,0.31,0.97,1000
16:08:49.457,17.54,-7.15,-112.58,-0.24,-0.24,-0.43,0.13,0.31,0.97,1000
16:08:49.459,17.54,-7.15,-112.58,-0.18,-0.12,-0.3,0.12,0.31,0.97,1000
16:08:49.463,17.54,-7.15,-112.58,-0.3,-0.18,-0.24,0.13,0.31,0.97,1000
16:08:49.465,17.54,-7.15,-112.58,-0.24,-0.37,-0.61,0.13,0.31,0.97,1000
16:08:49.467,17.54,-7.15,-112.58,-0.18,-0.24,-0.55,0.13,0.31,0.97,1000
16:08:49.471,17.54,-7.15,-112.58,-0.24,-0.12,-0.49,0.13,0.31,0.97,1000
16:08:49.472,17.54,-7.15,-112.58,-0.24,-0.06,-0.55,0.13,0.31,0.97,1000
16:08:49.472,17.54,-7.15,-112.58,-0.24,-0.12,-0.3,0.13,0.31,0.97,1000
16:08:49.473,17.54,-7.15,-112.59,-0.18,-0.18,-0.49,0.13,0.31,0.97,1000
16:08:49.477,17.54,-7.15,-112.59,-0.18,-0.18,-0.3,0.13,0.31,0.97,1000
16:08:49.478,17.54,-7.15,-112.59,-0.18,-0.18,-0.3,0.13,0.31,0.97,1000
16:08:49.479,17.54,-7.15,-112.59,-0.24,-0.3,-0.3,0.13,0.31,0.97,1000
16:08:49.481,17.54,-7.15,-112.59,-0.12,-0.12,-0.61,0.13,0.31,0.98,1000
16:08:49.485,17.54,-7.15,-112.59,-0.24,-0.12,-0.43,0.13,0.31,0.98,1000
16:08:49.485,17.54,-7.15,-112.59,-0.3,-0.24,-0.37,0.13,0.31,0.97,1000
16:08:49.487,17.54,-7.15,-112.59,-0.24,-0.3,-0.37,0.13,0.31,0.97,1000
16:08:49.489,17.54,-7.15,-112.59,-0.18,-0.3,-0.43,0.13,0.31,0.97,1000
16:08:49.492,17.54,-7.15,-112.59,-0.18,-0.24,-0.55,0.13,0.31,0.97,1000
16:08:49.494,17.54,-7.15,-112.59,-0.3,-0.3,-0.43,0.13,0.31,0.97,1000
16:08:49.496,17.54,-7.15,-112.59,-0.24,-0.24,-0.49,0.13,0.31,0.97,1000
16:08:49.497,17.54,-7.15,-112.59,-0.3,-0.12,-0.49,0.13,0.31,0.98,1000
16:08:49.499,17.54,-7.15,-112.59,-0.37,-0.12,-0.55,0.13,0.31,0.97,1000
16:08:49.501,17.54,-7.15,-112.59,-0.24,-0.18,-0.61,0.13,0.31,0.97,1000
16:08:49.503,17.54,-7.15,-112.59,-0.18,-0.12,-0.37,0.12,0.31,0.97,1000
16:08:49.507,17.54,-7.15,-112.6,-0.24,-0.24,-0.37,0.13,0.31,0.97,1000
16:08:49.512,17.54,-7.15,-112.6,-0.3,-0.24,-0.43,0.13,0.31,0.97,1000
16:08:49.522,17.54,-7.15,-112.6,-0.24,-0.12,-0.37,0.13,0.31,0.97,1000
16:08:49.523,17.54,-7.15,-112.6,-0.24,-0.3,-0.43,0.13,0.31,0.97,1000
16:08:49.523,17.54,-7.15,-112.6,-0.18,-0.18,-0.3,0.13,0.31,0.97,1000
16:08:49.523,17.54,-7.15,-112.6,-0.24,-0.24,-0.55,0.13,0.31,0.97,1000
16:08:49.523,17.54,-7.15,-112.6,-0.24,-0.18,-0.37,0.13,0.31,0.97,1000
16:08:49.523,17.54,-7.15,-112.6,-0.24,-0.18,-0.49,0.13,0.31,0.97,1000
16:08:49.523,17.54,-7.15,-112.6,-0.3,-0.18,-0.37,0.13,0.31,0.97,1000
16:08:49.524,17.54,-7.15,-112.6,-0.3,-0.18,-0.43,0.13,0.31,0.97,1000
16:08:49.526,17.54,-7.15,-112.6,-0.24,-0.3,-0.61,0.13,0.31,0.97,1000
16:08:49.529,17.54,-7.15,-112.6,-0.3,-0.12,-0.49,0.13,0.31,0.97,1000
16:08:49.529,17.54,-7.15,-112.6,-0.37,-0.12,-0.61,0.13,0.31,0.97,1000
16:08:49.533,17.53,-7.15,-112.6,-0.24,-0.18,-0.55,0.13,0.31,0.97,1000
16:08:49.534,17.53,-7.15,-112.61,-0.37,-0.24,-0.49,0.13,0.31,0.97,1000
16:08:49.535,17.53,-7.15,-112.61,-0.24,-0.24,-0.55,0.13,0.31,0.97,1000
16:08:49.537,17.53,-7.15,-112.61,-0.3,-0.37,-0.43,0.13,0.31,0.97,1000
16:08:49.540,17.53,-7.15,-112.61,-0.18,-0.18,-0.37,0.13,0.31,0.97,1000
16:08:49.541,17.53,-7.15,-112.61,-0.24,-0.12,-0.55,0.13,0.31,0.97,1000
16:08:49.543,17.53,-7.15,-112.61,-0.24,-0.37,-0.37,0.13,0.31,0.97,1000
16:08:49.545,17.53,-7.15,-112.61,-0.3,-0.18,-0.55,0.13,0.31,0.97,1000
16:08:49.549,17.53,-7.15,-112.61,-0.18,-0.18,-0.43,0.13,0.31,0.97,1000
16:08:49.549,17.53,-7.16,-112.61,-0.18,-0.18,-0.43,0.13,0.31,0.97,1000
16:08:49.551,17.53,-7.16,-112.61,-0.12,-0.18,-0.49,0.13,0.31,0.97,1000
16:08:49.556,17.53,-7.16,-112.61,-0.18,-0.37,-0.43,0.13,0.31,0.97,1000
16:08:49.556,17.53,-7.16,-112.61,-0.18,-0.3,-0.3,0.13,0.31,0.97,1000
16:08:49.558,17.53,-7.16,-112.61,-0.18,-0.3,-0.43,0.13,0.31,0.97,1000
16:08:49.561,17.53,-7.16,-112.61,-0.18,-0.12,-0.37,0.13,0.31,0.97,1000
16:08:49.564,17.53,-7.16,-112.61,-0.3,-0.18,-0.67,0.13,0.31,0.97,1000
16:08:49.564,17.53,-7.16,-112.61,-0.24,-0.43,-0.3,0.12,0.31,0.97,1000
16:08:49.567,17.53,-7.16,-112.62,-0.24,-0.24,-0.43,0.12,0.31,0.97,1000
16:08:49.574,17.53,-7.16,-112.62,-0.18,-0.18,-0.49,0.13,0.31,0.97,1000
16:08:49.575,17.53,-7.16,-112.62,-0.18,-0.18,-0.3,0.13,0.31,0.97,1000
16:08:49.575,17.53,-7.16,-112.62,-0.18,-0.37,-0.55,0.13,0.31,0.97,1000
16:08:49.575,17.53,-7.16,-112.62,-0.24,-0.18,-0.49,0.13,0.31,0.97,1000
16:08:49.576,17.53,-7.16,-112.62,-0.18,-0.24,-0.37,0.13,0.31,0.97,1000
16:08:49.579,17.53,-7.16,-112.62,-0.24,-0.24,-0.37,0.13,0.31,0.97,1000
16:08:49.582,17.53,-7.16,-112.62,-0.37,-0.06,-0.43,0.13,0.31,0.97,1000
16:08:49.582,17.53,-7.16,-112.62,-0.18,-0.18,-0.49,0.13,0.31,0.98,1000
16:08:49.583,17.53,-7.16,-112.62,-0.3,-0.12,-0.43,0.13,0.31,0.98,1000
16:08:49.587,17.53,-7.16,-112.62,-0.12,-0.18,-0.55,0.13,0.31,0.97,1000
16:08:49.588,17.53,-7.16,-112.62,-0.18,-0.24,-0.61,0.13,0.31,0.97,1000
16:08:49.589,17.53,-7.16,-112.62,-0.24,-0.43,-0.49,0.13,0.31,0.97,1000
16:08:49.591,17.53,-7.16,-112.62,-0.18,-0.3,-0.55,0.13,0.31,0.97,1000
16:08:49.593,17.53,-7.16,-112.62,-0.3,-0.3,-0.43,0.13,0.31,0.97,1000
16:08:49.596,17.53,-7.16,-112.63,-0.18,-0.3,-0.37,0.13,0.31,0.97,1000
16:08:49.597,17.53,-7.16,-112.63,-0.24,-0.12,-0.43,0.13,0.31,0.97,1000
16:08:49.599,17.53,-7.16,-112.63,-0.24,0.0,-0.37,0.13,0.31,0.97,1000
16:08:49.601,17.53,-7.16,-112.63,-0.24,-0.12,-0.61,0.13,0.31,0.97,1000
16:08:49.603,17.53,-7.16,-112.63,-0.18,-0.3,-0.49,0.13,0.31,0.97,1000
16:08:49.605,17.53,-7.16,-112.63,-0.3,-0.3,-0.37,0.13,0.31,0.97,1000
16:08:49.612,17.53,-7.16,-112.63,-0.18,-0.18,-0.3,0.12,0.31,0.97,1000
16:08:49.613,17.53,-7.16,-112.63,-0.3,-0.12,-0.61,0.13,0.31,0.97,1000
16:08:49.613,17.53,-7.16,-112.63,-0.3,-0.3,-0.49,0.13,0.31,0.97,1000
16:08:49.623,17.53,-7.16,-112.63,-0.24,-0.24,-0.37,0.13,0.31,0.97,1000
16:08:49.624,17.53,-7.16,-112.63,-0.37,-0.06,-0.49,0.13,0.31,0.97,1000
16:08:49.624,17.53,-7.16,-112.63,-0.18,-0.3,-0.3,0.13,0.31,0.97,1000
16:08:49.624,17.53,-7.16,-112.63,-0.18,-0.12,-0.61,0.13,0.31,0.97,1000
16:08:49.624,17.53,-7.16,-112.63,-0.18,-0.24,-0.37,0.13,0.31,0.97,1000
16:08:49.625,17.53,-7.16,-112.63,-0.3,-0.3,-0.37,0.13,0.31,0.97,1000
16:08:49.626,17.53,-7.16,-112.63,-0.24,-0.3,-0.43,0.13,0.31,0.97,1000
16:08:49.627,17.53,-7.16,-112.64,-0.12,-0.12,-0.37,0.13,0.31,0.97,1000
16:08:49.631,17.53,-7.16,-112.64,-0.18,-0.24,-0.24,0.13,0.31,0.97,1000
16:08:49.632,17.53,-7.16,-112.64,-0.18,-0.24,-0.3,0.13,0.31,0.97,1000
16:08:49.633,17.53,-7.16,-112.64,-0.18,-0.12,-0.43,0.13,0.31,0.97,1000
16:08:49.635,17.53,-7.16,-112.64,-0.18,-0.24,-0.43,0.13,0.31,0.97,1000
16:08:49.637,17.53,-7.16,-112.64,-0.3,-0.18,-0.37,0.13,0.31,0.97,1000
16:08:49.640,17.53,-7.16,-112.64,-0.24,-0.06,-0.61,0.13,0.31,0.97,1000
16:08:49.641,17.53,-7.16,-112.64,-0.18,-0.12,-0.49,0.13,0.31,0.97,1000
16:08:49.644,17.53,-7.16,-112.64,-0.12,-0.12,-0.3,0.12,0.31,0.98,1000
16:08:49.645,17.53,-7.16,-112.64,-0.12,-0.18,-0.43,0.13,0.31,0.97,1000
16:08:49.647,17.53,-7.16,-112.64,-0.12,-0.24,-0.37,0.13,0.31,0.97,1000
16:08:49.650,17.53,-7.16,-112.64,-0.24,-0.12,-0.49,0.13,0.31,0.97,1000
16:08:49.651,17.53,-7.16,-112.64,-0.12,-0.24,-0.49,0.13,0.31,0.97,1000
16:08:49.655,17.53,-7.16,-112.64,-0.18,-0.24,-0.67,0.13,0.31,0.97,1000
16:08:49.657,17.53,-7.16,-112.64,-0.24,-0.06,-0.61,0.12,0.31,0.97,1000
16:08:49.657,17.53,-7.16,-112.64,-0.18,-0.3,-0.55,0.13,0.31,0.97,1000
16:08:49.659,17.53,-7.16,-112.65,-0.3,-0.12,-0.61,0.13,0.31,0.97,1000
16:08:49.663,17.53,-7.16,-112.65,-0.24,-0.3,-0.43,0.13,0.31,0.97,1000
16:08:49.663,17.53,-7.16,-112.65,-0.12,-0.37,-0.37,0.13,0.31,0.97,1000
16:08:49.667,17.53,-7.16,-112.65,-0.24,-0.24,-0.37,0.13,0.31,0.97,1000
16:08:49.668,17.53,-7.16,-112.65,-0.18,-0.12,-0.43,0.13,0.31,0.97,1000
16:08:49.669,17.53,-7.16,-112.65,-0.24,-0.24,-0.3,0.13,0.31,0.97,1000
16:08:49.671,17.53,-7.16,-112.65,-0.18,-0.24,-0.3,0.13,0.31,0.97,1000
16:08:49.673,17.53,-7.16,-112.65,-0.24,-0.12,-0.3,0.13,0.31,0.97,1000
16:08:49.675,17.53,-7.16,-112.65,-0.3,-0.3,-0.43,0.12,0.31,0.97,1000
16:08:49.677,17.53,-7.16,-112.65,-0.18,-0.24,-0.37,0.12,0.31,0.97,1000
16:08:49.681,17.53,-7.16,-112.65,-0.18,-0.3,-0.37,0.13,0.31,0.97,1000
16:08:49.682,17.53,-7.16,-112.65,-0.3,-0.24,-0.73,0.13,0.31,0.97,1000
16:08:49.686,17.53,-7.16,-112.65,-0.3,-0.3,-0.49,0.13,0.31,0.97,1000
16:08:49.687,17.53,-7.16,-112.65,-0.3,-0.24,-0.3,0.13,0.31,0.97,1000
16:08:49.688,17.53,-7.16,-112.65,-0.24,-0.24,-0.43,0.13,0.31,0.97,1000
16:08:49.690,17.53,-7.16,-112.65,-0.24,-0.18,-0.3,0.13,0.31,0.97,1000
16:08:49.695,17.53,-7.16,-112.65,-0.18,-0.06,-0.43,0.13,0.31,0.97,1000
16:08:49.696,17.53,-7.16,-112.65,-0.18,-0.3,-0.37,0.13,0.31,0.97,1000
16:08:49.696,17.53,-7.16,-112.66,-0.18,-0.24,-0.43,0.13,0.31,0.97,1000
16:08:49.699,17.53,-7.16,-112.66,-0.24,-0.18,-0.49,0.13,0.31,0.97,1000
16:08:49.699,17.53,-7.16,-112.66,-0.3,-0.24,-0.43,0.13,0.31,0.97,1000
16:08:49.701,17.53,-7.16,-112.66,-0.24,-0.24,-0.3,0.13,0.31,0.97,1000
16:08:49.703,17.53,-7.16,-112.66,-0.3,-0.12,-0.37,0.13,0.31,0.98,1000
16:08:49.706,17.53,-7.16,-112.66,-0.12,-0.18,-0.37,0.13,0.31,0.97,1000
16:08:49.707,17.53,-7.16,-112.66,-0.12,-0.18,-0.43,0.13,0.31,0.97,1000
16:08:49.715,17.53,-7.16,-112.66,-0.3,-0.18,-0.43,0.12,0.31,0.97,1000
16:08:49.716,17.53,-7.16,-112.66,-0.24,-0.24,-0.43,0.13,0.31,0.97,1000
16:08:49.716,17.53,-7.16,-112.66,-0.18,-0.18,-0.43,0.13,0.31,0.97,1000
16:08:49.716,17.53,-7.16,-112.66,-0.3,-0.43,-0.55,0.13,0.31,0.97,1000
16:08:49.724,17.53,-7.16,-112.66,-0.24,-0.12,-0.43,0.13,0.31,0.97,1000
16:08:49.725,17.53,-7.16,-112.66,-0.18,-0.06,-0.3,0.13,0.31,0.97,1000
16:08:49.725,17.53,-7.16,-112.66,-0.18,-0.24,-0.55,0.13,0.31,0.97,1000
16:08:49.725,17.53,-7.16,-112.66,-0.18,-0.24,-0.43,0.13,0.31,0.97,1000
16:08:49.727,17.53,-7.16,-112.67,-0.18,-0.18,-0.37,0.13,0.31,0.97,1000
16:08:49.727,17.53,-7.16,-112.67,-0.18,-0.24,-0.3,0.13,0.31,0.97,1000
16:08:49.729,17.53,-7.16,-112.67,-0.3,-0.37,-0.49,0.13,0.31,0.97,1000
16:08:49.734,17.53,-7.16,-112.67,-0.3,-0.3,-0.43,0.13,0.31,0.97,1000
16:08:49.734,17.53,-7.16,-112.67,-0.18,-0.12,-0.43,0.13,0.31,0.97,1000
16:08:49.736,17.53,-7.16,-112.67,-0.12,-0.37,-0.43,0.13,0.31,0.97,1000
16:08:49.738,17.53,-7.16,-112.67,-0.24,-0.3,-0.49,0.13,0.31,0.97,1000
16:08:49.739,17.53,-7.16,-112.67,-0.37,-0.3,-0.49,0.13,0.31,0.97,1000
16:08:49.741,17.53,-7.16,-112.67,-0.3,-0.37,-0.55,0.13,0.31,0.97,1000
16:08:49.743,17.53,-7.16,-112.67,-0.24,-0.24,-0.49,0.13,0.31,0.97,1000
16:08:49.745,17.53,-7.16,-112.67,-0.24,-0.18,-0.37,0.13,0.31,0.97,1000
16:08:49.747,17.53,-7.16,-112.67,-0.3,-0.18,-0.37,0.13,0.31,0.97,1000
16:08:49.749,17.53,-7.16,-112.67,-0.18,-0.18,-0.3,0.13,0.31,0.97,1000
16:08:49.752,17.53,-7.16,-112.67,-0.3,-0.24,-0.49,0.13,0.31,0.97,1000
16:08:49.753,17.53,-7.16,-112.67,-0.18,-0.06,-0.49,0.13,0.31,0.97,1000
16:08:49.755,17.53,-7.16,-112.67,-0.24,-0.3,-0.43,0.13,0.31,0.97,1000
16:08:49.758,17.53,-7.16,-112.67,-0.24,-0.24,-0.43,0.13,0.31,0.97,1000
16:08:49.760,17.53,-7.16,-112.67,-0.24,-0.12,-0.43,0.13,0.31,0.97,1000
16:08:49.761,17.53,-7.16,-112.68,-0.24,-0.12,-0.55,0.13,0.31,0.97,1000
16:08:49.764,17.53,-7.16,-112.68,-0.18,-0.24,-0.49,0.13,0.31,0.97,1000
16:08:49.767,17.53,-7.16,-112.68,-0.18,-0.06,-0.3,0.13,0.31,0.97,1000
16:08:49.767,17.53,-7.16,-112.68,-0.24,0.0,-0.24,0.13,0.31,0.97,1000
16:08:49.769,17.53,-7.16,-112.68,-0.18,-0.24,-0.43,0.13,0.31,0.97,1000
16:08:49.771,17.53,-7.16,-112.68,-0.24,-0.18,-0.3,0.13,0.31,0.97,1000
16:08:49.773,17.53,-7.16,-112.68,-0.3,-0.3,-0.24,0.13,0.31,0.97,1000
16:08:49.775,17.53,-7.16,-112.68,-0.18,-0.3,-0.61,0.13,0.31,0.97,1000
16:08:49.777,17.53,-7.16,-112.68,-0.06,-0.12,-0.49,0.13,0.31,0.97,1000
16:08:49.780,17.53,-7.16,-112.68,-0.24,-0.37,-0.43,0.13,0.31,0.97,1000
16:08:49.784,17.53,-7.16,-112.68,-0.3,-0.18,-0.43,0.13,0.31,0.97,1000
16:08:49.785,17.53,-7.16,-112.68,-0.24,-0.24,-0.3,0.13,0.31,0.97,1000
16:08:49.786,17.53,-7.17,-112.68,-0.24,-0.12,-0.49,0.13,0.31,0.97,1000
16:08:49.788,17.53,-7.17,-112.68,-0.18,-0.12,-0.3,0.13,0.31,0.97,1000
16:08:49.790,17.53,-7.17,-112.68,-0.18,-0.3,-0.43,0.13,0.31,0.97,1000
16:08:49.791,17.53,-7.17,-112.68,-0.24,0.06,-0.67,0.13,0.31,0.97,1000
16:08:49.795,17.53,-7.17,-112.69,-0.24,-0.18,-0.37,0.13,0.31,0.97,1000
16:08:49.796,17.53,-7.17,-112.69,-0.18,-0.12,-0.43,0.13,0.31,0.97,1000
16:08:49.797,17.53,-7.17,-112.69,-0.24,-0.24,-0.43,0.13,0.31,0.97,1000
16:08:49.801,17.53,-7.17,-112.69,-0.24,-0.12,-0.37,0.13,0.31,0.97,1000
16:08:49.802,17.53,-7.17,-112.69,-0.18,-0.06,-0.37,0.13,0.31,0.97,1000
16:08:49.803,17.53,-7.17,-112.69,-0.3,-0.3,-0.37,0.13,0.31,0.97,1000
16:08:49.808,17.53,-7.17,-112.69,-0.18,-0.12,-0.49,0.13,0.31,0.97,1000
16:08:49.808,17.53,-7.17,-112.69,-0.24,-0.18,-0.49,0.13,0.31,0.97,1000
16:08:49.810,17.53,-7.17,-112.69,-0.24,-0.3,-0.43,0.13,0.31,0.97,1000
16:08:49.811,17.53,-7.17,-112.69,-0.24,-0.18,-0.55,0.13,0.31,0.97,1000
16:08:49.828,17.53,-7.17,-112.69,-0.18,-0.37,-0.55,0.13,0.31,0.97,1000
16:08:49.829,17.53,-7.17,-112.69,-0.18,-0.12,-0.67,0.13,0.31,0.97,1000
16:08:49.829,17.53,-7.17,-112.69,-0.18,0.0,-0.49,0.13,0.31,0.97,1000
16:08:49.829,17.53,-7.17,-112.69,-0.18,-0.12,-0.37,0.13,0.31,0.97,1000
16:08:49.829,17.53,-7.17,-112.69,-0.18,-0.12,-0.43,0.13,0.31,0.97,1000
16:08:49.829,17.53,-7.17,-112.69,-0.37,-0.18,-0.49,0.13,0.31,0.97,1000
16:08:49.829,17.53,-7.17,-112.7,-0.18,-0.12,-0.3,0.13,0.31,0.97,1000
16:08:49.829,17.53,-7.17,-112.7,-0.3,-0.18,-0.37,0.13,0.31,0.97,1000
16:08:49.830,17.53,-7.17,-112.7,-0.24,-0.12,-0.49,0.13,0.31,0.97,1000
16:08:49.831,17.53,-7.17,-112.7,-0.18,-0.24,-0.61,0.13,0.31,0.97,1000
16:08:49.833,17.53,-7.17,-112.7,-0.24,-0.24,-0.55,0.13,0.31,0.97,1000
16:08:49.835,17.53,-7.17,-112.7,-0.37,-0.18,-0.49,0.13,0.31,0.97,1000
16:08:49.837,17.53,-7.17,-112.7,-0.18,-0.18,-0.37,0.13,0.31,0.97,1000
16:08:49.839,17.53,-7.17,-112.7,-0.24,-0.43,-0.61,0.13,0.31,0.97,1000
16:08:49.841,17.53,-7.17,-112.7,-0.18,-0.18,-0.49,0.13,0.31,0.97,1000
16:08:49.843,17.53,-7.17,-112.7,-0.18,-0.3,-0.3,0.13,0.31,0.97,1000
16:08:49.845,17.53,-7.17,-112.7,-0.18,-0.3,-0.55,0.13,0.31,0.97,1000
16:08:49.847,17.53,-7.17,-112.7,-0.18,-0.18,-0.43,0.13,0.31,0.97,1000
16:08:49.849,17.53,-7.17,-112.7,-0.18,-0.12,-0.37,0.13,0.31,0.97,1000
16:08:49.851,17.53,-7.17,-112.7,-0.24,-0.12,-0.43,0.13,0.31,0.97,1000
16:08:49.853,17.53,-7.17,-112.7,-0.18,-0.24,-0.43,0.13,0.31,0.97,1000
16:08:49.858,17.53,-7.17,-112.7,-0.18,-0.18,-0.37,0.13,0.31,0.97,1000
16:08:49.858,17.53,-7.17,-112.71,-0.3,-0.18,-0.37,0.13,0.31,0.97,1000
16:08:49.859,17.53,-7.17,-112.71,-0.18,-0.12,-0.55,0.13,0.31,0.97,1000
16:08:49.862,17.53,-7.17,-112.71,-0.24,-0.3,-0.43,0.13,0.31,0.97,1000
16:08:49.865,17.53,-7.17,-112.71,-0.24,-0.24,-0.49,0.12,0.31,0.98,1000
16:08:49.866,17.53,-7.17,-112.71,-0.18,-0.18,-0.43,0.13,0.31,0.97,1000
16:08:49.867,17.53,-7.17,-112.71,-0.12,-0.24,-0.37,0.13,0.31,0.97,1000
16:08:49.870,17.53,-7.17,-112.71,-0.18,-0.18,-0.43,0.13,0.31,0.97,1000
16:08:49.871,17.53,-7.17,-112.71,-0.24,-0.3,-0.55,0.13,0.31,0.97,1000
16:08:49.874,17.53,-7.17,-112.71,-0.3,-0.18,-0.61,0.13,0.31,0.97,1000
16:08:49.876,17.53,-7.17,-112.71,-0.24,-0.3,-0.49,0.13,0.31,0.97,1000
16:08:49.878,17.53,-7.17,-112.71,-0.24,-0.24,-0.55,0.13,0.31,0.97,1000
16:08:49.879,17.53,-7.17,-112.71,-0.12,-0.12,-0.24,0.13,0.31,0.97,1000
16:08:49.881,17.53,-7.17,-112.71,-0.18,-0.37,-0.61,0.13,0.31,0.97,1000
16:08:49.883,17.53,-7.17,-112.71,-0.18,-0.37,-0.43,0.13,0.31,0.97,1000
16:08:49.886,17.53,-7.17,-112.72,-0.18,-0.3,-0.49,0.13,0.31,0.97,1000
16:08:49.888,17.53,-7.17,-112.72,-0.24,-0.18,-0.24,0.13,0.31,0.97,1000
16:08:49.891,17.53,-7.17,-112.72,-0.18,-0.3,-0.37,0.13,0.31,0.97,1000
16:08:49.892,17.54,-7.17,-112.72,-0.18,-0.18,-0.43,0.13,0.31,0.97,1000
16:08:49.893,17.54,-7.17,-112.72,-0.18,-0.24,-0.37,0.13,0.31,0.97,1000
16:08:49.895,17.54,-7.17,-112.72,-0.18,-0.3,-0.37,0.13,0.31,0.97,1000
16:08:49.897,17.54,-7.17,-112.72,-0.18,-0.24,-0.49,0.13,0.31,0.97,1000
16:08:49.899,17.54,-7.17,-112.72,-0.24,-0.24,-0.24,0.13,0.31,0.97,1000
16:08:49.901,17.54,-7.17,-112.72,-0.18,-0.12,-0.43,0.13,0.31,0.97,1000
16:08:49.904,17.54,-7.17,-112.72,-0.18,-0.3,-0.49,0.13,0.31,0.98,1000
16:08:49.908,17.54,-7.17,-112.72,-0.24,-0.3,-0.55,0.13,0.31,0.97,1000
16:08:49.908,17.54,-7.17,-112.72,-0.24,-0.12,-0.43,0.12,0.31,0.97,1000
16:08:49.910,17.54,-7.17,-112.72,-0.24,-0.24,-0.43,0.13,0.31,0.97,1000
16:08:49.911,17.54,-7.17,-112.72,-0.18,-0.18,-0.3,0.13,0.31,0.97,1000
16:08:49.913,17.54,-7.17,-112.72,-0.3,-0.24,-0.3,0.13,0.31,0.97,1000
16:08:49.927,17.54,-7.17,-112.72,-0.12,-0.3,-0.49,0.13,0.31,0.97,1000
16:08:49.931,17.54,-7.17,-112.72,-0.18,-0.3,-0.49,0.13,0.31,0.97,1000
16:08:49.931,17.54,-7.17,-112.72,-0.12,-0.24,-0.61,0.13,0.31,0.97,1000
16:08:49.931,17.54,-7.17,-112.73,-0.18,-0.18,-0.55,0.13,0.31,0.97,1000
16:08:49.931,17.54,-7.17,-112.73,-0.24,-0.3,-0.55,0.13,0.31,0.97,1000
16:08:49.931,17.54,-7.17,-112.73,-0.18,-0.24,-0.49,0.13,0.31,0.97,1000
16:08:49.931,17.54,-7.17,-112.73,-0.18,-0.24,-0.43,0.13,0.31,0.97,1000
16:08:49.931,17.54,-7.17,-112.73,-0.18,-0.24,-0.3,0.13,0.31,0.97,1000
16:08:49.932,17.54,-7.17,-112.73,-0.3,-0.24,-0.49,0.13,0.31,0.97,1000
16:08:49.934,17.54,-7.17,-112.73,-0.18,-0.37,-0.43,0.13,0.31,0.97,1000
16:08:49.936,17.54,-7.17,-112.73,-0.3,-0.3,-0.43,0.13,0.31,0.97,1000
16:08:49.940,17.54,-7.17,-112.73,-0.12,-0.3,-0.3,0.12,0.31,0.98,1000
16:08:49.940,17.54,-7.17,-112.73,-0.18,-0.18,-0.49,0.13,0.31,0.97,1000
16:08:49.942,17.54,-7.17,-112.73,-0.06,-0.24,-0.37,0.13,0.31,0.97,1000
16:08:49.944,17.54,-7.17,-112.73,-0.18,-0.24,-0.3,0.13,0.31,0.97,1000
16:08:49.946,17.54,-7.17,-112.73,-0.18,-0.18,-0.49,0.13,0.31,0.97,1000
16:08:49.948,17.54,-7.17,-112.73,-0.18,-0.12,-0.37,0.13,0.31,0.97,1000
16:08:49.949,17.54,-7.17,-112.73,-0.18,-0.3,-0.55,0.13,0.31,0.97,1000
16:08:49.951,17.54,-7.17,-112.73,-0.3,-0.3,-0.55,0.13,0.31,0.97,1000
16:08:49.953,17.54,-7.17,-112.73,-0.24,-0.24,-0.43,0.13,0.31,0.97,1000
16:08:49.955,17.54,-7.17,-112.74,-0.18,-0.18,-0.3,0.13,0.31,0.97,1000
16:08:49.959,17.54,-7.17,-112.74,-0.24,-0.24,-0.43,0.13,0.31,0.97,1000
16:08:49.959,17.54,-7.17,-112.74,-0.12,-0.24,-0.55,0.13,0.31,0.97,1000
16:08:49.962,17.54,-7.17,-112.74,-0.24,-0.3,-0.61,0.13,0.31,0.97,1000
16:08:49.963,17.54,-7.17,-112.74,-0.24,-0.18,-0.61,0.13,0.31,0.97,1000
16:08:49.965,17.54,-7.17,-112.74,-0.18,-0.43,-0.37,0.13,0.31,0.97,1000
16:08:49.969,17.54,-7.17,-112.74,-0.12,-0.24,-0.49,0.13,0.31,0.97,1000
16:08:49.970,17.54,-7.17,-112.74,-0.12,-0.06,-0.37,0.13,0.31,0.97,1000
16:08:49.971,17.54,-7.17,-112.74,-0.3,-0.18,-0.49,0.13,0.31,0.97,1000
16:08:49.973,17.54,-7.17,-112.74,-0.37,-0.24,-0.67,0.13,0.31,0.97,1000
16:08:49.975,17.54,-7.17,-112.74,-0.3,-0.24,-0.49,0.13,0.31,0.97,1000
16:08:49.980,17.54,-7.17,-112.74,-0.24,-0.3,-0.3,0.13,0.31,0.97,1000
16:08:49.980,17.54,-7.17,-112.74,-0.24,-0.12,-0.3,0.13,0.31,0.97,1000
16:08:49.981,17.54,-7.17,-112.74,-0.18,-0.18,-0.3,0.13,0.31,0.97,1000
16:08:49.986,17.54,-7.17,-112.74,-0.24,-0.18,-0.37,0.13,0.31,0.97,1000
16:08:49.989,17.54,-7.17,-112.74,-0.18,-0.43,-0.43,0.12,0.31,0.97,1000
16:08:49.990,17.54,-7.17,-112.75,-0.24,-0.24,-0.43,0.13,0.31,0.97,1000
16:08:49.990,17.54,-7.17,-112.75,-0.18,-0.24,-0.49,0.13,0.31,0.97,1000
16:08:49.991,17.54,-7.17,-112.75,-0.37,-0.24,-0.67,0.13,0.31,0.97,1000
16:08:49.993,17.54,-7.17,-112.75,-0.37,-0.3,-0.55,0.13,0.31,0.98,1000
16:08:49.996,17.54,-7.17,-112.75,-0.3,-0.24,-0.37,0.13,0.31,0.97,1000
16:08:49.997,17.54,-7.17,-112.75,-0.37,-0.18,-0.43,0.13,0.31,0.97,1000
16:08:49.999,17.54,-7.17,-112.75,-0.18,-0.18,-0.3,0.13,0.31,0.97,1000
16:08:50.002,17.54,-7.17,-112.75,-0.24,-0.18,-0.3,0.13,0.31,0.97,1000
16:08:50.003,17.54,-7.17,-112.75,-0.18,-0.24,-0.43,0.13,0.31,0.97,1000
16:08:50.006,17.54,-7.17,-112.75,-0.18,-0.24,-0.37,0.13,0.31,0.97,1000
16:08:50.008,17.54,-7.17,-112.75,-0.18,-0.3,-0.43,0.13,0.31,0.97,1000
16:08:50.009,17.54,-7.17,-112.75,-0.24,-0.24,-0.43,0.13,0.31,0.97,1000
16:08:50.011,17.54,-7.17,-112.75,-0.3,-0.18,-0.49,0.13,0.31,0.97,1000
16:08:50.013,17.54,-7.17,-112.75,-0.18,-0.3,-0.3,0.13,0.31,0.97,1000
16:08:50.015,17.54,-7.17,-112.75,-0.18,-0.3,-0.43,0.13,0.31,0.97,1000
16:08:50.032,17.54,-7.17,-112.75,-0.37,-0.18,-0.49,0.13,0.31,0.97,1000
16:08:50.032,17.54,-7.17,-112.75,-0.24,-0.24,-0.61,0.13,0.31,0.97,1000
16:08:50.032,17.54,-7.17,-112.76,-0.18,-0.24,-0.43,0.13,0.31,0.97,1000
16:08:50.032,17.54,-7.17,-112.76,-0.12,-0.18,-0.43,0.13,0.31,0.97,1000
16:08:50.032,17.53,-7.17,-112.76,-0.18,-0.24,-0.37,0.13,0.31,0.97,1000
16:08:50.032,17.53,-7.17,-112.76,-0.37,-0.18,-0.43,0.13,0.31,0.97,1000
16:08:50.032,17.53,-7.17,-112.76,-0.18,-0.18,-0.3,0.13,0.31,0.97,1000
16:08:50.032,17.53,-7.17,-112.76,-0.24,-0.12,-0.49,0.12,0.31,0.97,1000
16:08:50.034,17.53,-7.17,-112.76,-0.24,-0.18,-0.37,0.13,0.31,0.97,1000
16:08:50.035,17.53,-7.17,-112.76,-0.18,-0.24,-0.3,0.13,0.31,0.97,1000
16:08:50.037,17.53,-7.17,-112.76,-0.24,-0.3,-0.24,0.13,0.31,0.97,1000
16:08:50.043,17.53,-7.17,-112.76,-0.18,-0.24,-0.3,0.13,0.31,0.97,1000
16:08:50.043,17.53,-7.17,-112.76,-0.24,-0.12,-0.43,0.13,0.31,0.97,1000
16:08:50.044,17.53,-7.17,-112.76,-0.18,-0.18,-0.49,0.13,0.31,0.97,1000
16:08:50.045,17.53,-7.17,-112.76,-0.24,-0.24,-0.49,0.13,0.31,0.97,1000
16:08:50.048,17.53,-7.17,-112.76,-0.24,-0.12,-0.3,0.13,0.31,0.97,1000
16:08:50.050,17.53,-7.17,-112.76,-0.3,-0.24,-0.37,0.13,0.31,0.97,1000
16:08:50.051,17.53,-7.17,-112.77,-0.18,-0.24,-0.37,0.13,0.31,0.97,1000
16:08:50.053,17.53,-7.17,-112.77,-0.12,-0.24,-0.37,0.13,0.31,0.97,1000
16:08:50.055,17.53,-7.17,-112.77,-0.24,-0.3,-0.43,0.13,0.31,0.97,1000
16:08:50.057,17.53,-7.17,-112.77,-0.18,-0.37,-0.49,0.13,0.31,0.97,1000
16:08:50.059,17.53,-7.17,-112.77,-0.18,-0.24,-0.3,0.13,0.31,0.97,1000
16:08:50.061,17.53,-7.17,-112.77,-0.18,-0.18,-0.43,0.13,0.31,0.97,1000
16:08:50.065,17.53,-7.17,-112.77,-0.18,-0.3,-0.37,0.13,0.31,0.97,1000
16:08:50.066,17.53,-7.17,-112.77,-0.3,-0.18,-0.3,0.13,0.31,0.97,1000
16:08:50.067,17.53,-7.17,-112.77,-0.3,-0.43,-0.37,0.13,0.31,0.97,1000
16:08:50.069,17.53,-7.17,-112.77,-0.18,-0.3,-0.37,0.13,0.31,0.98,1000
16:08:50.071,17.53,-7.17,-112.77,-0.3,-0.43,-0.3,0.13,0.31,0.98,1000
16:08:50.073,17.53,-7.17,-112.77,-0.18,-0.37,-0.49,0.13,0.31,0.98,1000
16:08:50.075,17.53,-7.17,-112.77,-0.18,-0.24,-0.37,0.13,0.31,0.98,1000
16:08:50.077,17.53,-7.17,-112.77,-0.18,-0.24,-0.55,0.13,0.31,0.97,1000
16:08:50.081,17.53,-7.17,-112.77,-0.37,-0.18,-0.49,0.13,0.31,0.97,1000
16:08:50.082,17.53,-7.17,-112.77,-0.24,-0.18,-0.55,0.13,0.31,0.97,1000
16:08:50.085,17.53,-7.17,-112.77,-0.37,-0.24,-0.37,0.13,0.31,0.97,1000
16:08:50.085,17.53,-7.17,-112.77,-0.24,-0.37,-0.37,0.13,0.31,0.97,1000
16:08:50.087,17.53,-7.17,-112.77,-0.3,-0.43,-0.43,0.13,0.31,0.97,1000
16:08:50.091,17.53,-7.17,-112.78,-0.3,-0.37,-0.49,0.12,0.31,0.97,1000
16:08:50.092,17.53,-7.17,-112.78,-0.3,-0.3,-0.61,0.13,0.31,0.97,1000
16:08:50.093,17.53,-7.17,-112.78,-0.18,-0.12,-0.37,0.13,0.31,0.97,1000
16:08:50.095,17.53,-7.17,-112.78,-0.18,-0.18,-0.49,0.13,0.31,0.97,1000
16:08:50.098,17.53,-7.17,-112.78,-0.24,-0.18,-0.3,0.12,0.31,0.97,1000
16:08:50.100,17.53,-7.17,-112.78,-0.18,-0.3,-0.37,0.13,0.31,0.97,1000
16:08:50.101,17.53,-7.17,-112.78,-0.24,-0.12,-0.61,0.13,0.31,0.97,1000
16:08:50.104,17.53,-7.17,-112.78,-0.18,-0.24,-0.49,0.13,0.31,0.97,1000
16:08:50.109,17.53,-7.17,-112.78,-0.12,-0.06,-0.49,0.13,0.31,0.97,1000
16:08:50.110,17.53,-7.17,-112.78,-0.18,0.0,-0.43,0.13,0.31,0.97,1000
16:08:50.110,17.53,-7.17,-112.78,-0.18,-0.12,-0.49,0.13,0.31,0.97,1000
16:08:50.112,17.53,-7.17,-112.78,-0.12,-0.06,-0.49,0.13,0.31,0.97,1000
16:08:50.115,17.53,-7.17,-112.78,-0.24,-0.12,-0.49,0.13,0.31,0.97,1000
16:08:50.116,17.53,-7.17,-112.78,-0.24,-0.18,-0.49,0.13,0.31,0.97,1000
16:08:50.118,17.53,-7.16,-112.78,-0.12,-0.06,-0.3,0.13,0.31,0.97,1000
16:08:50.135,17.53,-7.16,-112.79,-0.18,-0.24,-0.49,0.13,0.31,0.97,1000
16:08:50.135,17.53,-7.16,-112.79,-0.24,-0.18,-0.55,0.13,0.31,0.97,1000
16:08:50.136,17.53,-7.16,-112.79,-0.3,-0.24,-0.49,0.13,0.31,0.97,1000
16:08:50.136,17.53,-7.17,-112.79,-0.3,-0.43,-0.3,0.13,0.31,0.97,1000
16:08:50.136,17.53,-7.17,-112.79,-0.24,-0.24,-0.49,0.13,0.31,0.97,1000
16:08:50.136,17.53,-7.17,-112.79,-0.12,0.0,-0.43,0.12,0.31,0.97,1000
16:08:50.136,17.53,-7.16,-112.79,-0.3,0.0,-0.37,0.12,0.31,0.97,1000
16:08:50.136,17.53,-7.16,-112.79,-0.24,0.0,-0.49,0.12,0.31,0.97,1000
16:08:50.136,17.53,-7.16,-112.79,-0.12,-0.12,-0.24,0.13,0.31,0.97,1000
16:08:50.137,17.53,-7.16,-112.79,-0.3,-0.24,-0.37,0.13,0.31,0.97,1000
16:08:50.140,17.53,-7.16,-112.79,-0.18,-0.12,-0.49,0.13,0.31,0.97,1000
16:08:50.143,17.53,-7.16,-112.79,-0.12,-0.3,-0.43,0.13,0.31,0.97,1000
16:08:50.143,17.53,-7.16,-112.79,-0.37,-0.24,-0.37,0.13,0.31,0.97,1000
16:08:50.145,17.53,-7.16,-112.79,-0.3,-0.12,-0.3,0.13,0.31,0.97,1000
16:08:50.148,17.53,-7.16,-112.79,-0.3,-0.3,-0.49,0.13,0.31,0.97,1000
16:08:50.149,17.53,-7.16,-112.79,-0.24,-0.18,-0.3,0.13,0.31,0.97,1000
16:08:50.151,17.53,-7.16,-112.8,-0.24,-0.18,-0.37,0.13,0.31,0.97,1000
16:08:50.153,17.53,-7.16,-112.8,-0.24,-0.12,-0.3,0.13,0.31,0.97,1000
16:08:50.155,17.53,-7.16,-112.8,-0.24,0.0,-0.55,0.13,0.31,0.97,1000
16:08:50.159,17.53,-7.16,-112.8,-0.37,-0.24,-0.43,0.13,0.31,0.97,1000
16:08:50.160,17.53,-7.16,-112.8,-0.18,-0.24,-0.49,0.13,0.31,0.97,1000
16:08:50.163,17.53,-7.16,-112.8,-0.24,-0.24,-0.49,0.13,0.31,0.98,1000
16:08:50.168,17.53,-7.16,-112.8,-0.3,-0.24,-0.43,0.13,0.31,0.97,1000
16:08:50.168,17.53,-7.16,-112.8,-0.3,-0.24,-0.43,0.13,0.31,0.97,1000
16:08:50.168,17.53,-7.16,-112.8,-0.3,-0.18,-0.43,0.13,0.31,0.97,1000
16:08:50.170,17.53,-7.16,-112.8,-0.24,-0.12,-0.37,0.13,0.31,0.97,1000
16:08:50.172,17.53,-7.16,-112.8,-0.24,-0.24,-0.61,0.13,0.31,0.97,1000
16:08:50.174,17.53,-7.16,-112.8,-0.18,-0.37,-0.43,0.13,0.31,0.97,1000
16:08:50.176,17.53,-7.16,-112.8,-0.3,-0.24,-0.3,0.13,0.31,0.97,1000
16:08:50.177,17.53,-7.16,-112.8,-0.24,-0.24,-0.3,0.13,0.31,0.97,1000
16:08:50.179,17.53,-7.16,-112.81,-0.18,-0.12,-0.43,0.13,0.31,0.97,1000
16:08:50.181,17.53,-7.16,-112.81,-0.12,-0.24,-0.43,0.13,0.31,0.97,1000
16:08:50.184,17.53,-7.16,-112.81,-0.18,-0.18,-0.55,0.13,0.31,0.97,1000
16:08:50.185,17.53,-7.16,-112.81,-0.3,-0.3,-0.49,0.13,0.31,0.97,1000
16:08:50.189,17.53,-7.16,-112.81,-0.24,-0.24,-0.55,0.13,0.31,0.97,1000
16:08:50.189,17.53,-7.16,-112.81,-0.24,-0.18,-0.37,0.13,0.31,0.97,1000
16:08:50.194,17.53,-7.16,-112.81,-0.24,-0.3,-0.37,0.13,0.31,0.97,1000
16:08:50.194,17.53,-7.16,-112.81,-0.24,-0.24,-0.43,0.13,0.31,0.97,1000
16:08:50.196,17.53,-7.16,-112.81,-0.18,-0.12,-0.55,0.13,0.31,0.97,1000
16:08:50.197,17.53,-7.16,-112.81,-0.3,-0.18,-0.55,0.13,0.31,0.97,1000
16:08:50.201,17.53,-7.16,-112.81,-0.18,-0.24,-0.49,0.13,0.31,0.97,1000
16:08:50.204,17.53,-7.16,-112.81,-0.24,-0.3,-0.43,0.13,0.31,0.97,1000
16:08:50.204,17.53,-7.16,-112.81,-0.18,-0.18,-0.43,0.13,0.31,0.97,1000
16:08:50.206,17.53,-7.16,-112.81,-0.24,-0.18,-0.37,0.13,0.31,0.97,1000
16:08:50.208,17.53,-7.16,-112.81,-0.18,-0.24,-0.43,0.13,0.31,0.97,1000
16:08:50.210,17.53,-7.16,-112.81,-0.12,-0.24,-0.37,0.13,0.31,0.97,1000
16:08:50.211,17.53,-7.16,-112.81,-0.12,-0.3,-0.49,0.13,0.31,0.97,1000
16:08:50.213,17.53,-7.16,-112.82,-0.18,-0.18,-0.43,0.13,0.31,0.97,1000
16:08:50.215,17.53,-7.16,-112.82,-0.18,-0.18,-0.49,0.13,0.31,0.97,1000
16:08:50.217,17.53,-7.16,-112.82,-0.12,-0.12,-0.49,0.13,0.31,0.97,1000
16:08:50.220,17.53,-7.16,-112.82,-0.24,-0.06,-0.37,0.13,0.31,0.97,1000
16:08:50.238,17.53,-7.16,-112.82,-0.18,-0.06,-0.3,0.13,0.31,0.97,1000
16:08:50.238,17.53,-7.16,-112.82,-0.18,-0.18,-0.3,0.13,0.31,0.98,1000
16:08:50.238,17.53,-7.16,-112.82,-0.24,-0.37,-0.37,0.13,0.31,0.97,1000
16:08:50.238,17.53,-7.16,-112.82,-0.24,-0.3,-0.24,0.13,0.31,0.97,1000
16:08:50.238,17.53,-7.16,-112.82,-0.18,0.0,-0.55,0.12,0.31,0.97,1000
16:08:50.238,17.53,-7.16,-112.82,-0.18,-0.06,-0.49,0.13,0.31,0.97,1000
16:08:50.238,17.53,-7.16,-112.82,-0.3,-0.24,-0.55,0.13,0.31,0.97,1000
16:08:50.238,17.53,-7.16,-112.82,-0.24,-0.24,-0.43,0.13,0.31,0.97,1000
16:08:50.238,17.53,-7.16,-112.82,-0.3,-0.3,-0.37,0.13,0.31,0.97,1000
16:08:50.240,17.53,-7.16,-112.82,-0.18,-0.24,-0.37,0.13,0.31,0.97,1000
16:08:50.242,17.53,-7.16,-112.82,-0.24,-0.24,-0.37,0.13,0.31,0.97,1000
16:08:50.244,17.53,-7.16,-112.82,-0.24,-0.12,-0.43,0.13,0.31,0.97,1000
16:08:50.246,17.53,-7.16,-112.82,-0.37,-0.18,-0.55,0.13,0.31,0.97,1000
16:08:50.248,17.53,-7.16,-112.82,-0.24,-0.06,-0.3,0.13,0.31,0.97,1000
16:08:50.249,17.53,-7.16,-112.83,-0.12,-0.37,-0.43,0.13,0.31,0.97,1000
16:08:50.251,17.53,-7.16,-112.83,-0.24,-0.12,-0.49,0.13,0.31,0.97,1000
16:08:50.253,17.53,-7.16,-112.83,-0.18,-0.3,-0.3,0.13,0.31,0.97,1000
16:08:50.256,17.53,-7.16,-112.83,-0.18,-0.18,-0.3,0.13,0.31,0.97,1000
16:08:50.257,17.53,-7.16,-112.83,-0.3,-0.18,-0.37,0.13,0.31,0.97,1000
16:08:50.260,17.53,-7.16,-112.83,-0.18,-0.3,-0.49,0.13,0.31,0.97,1000
16:08:50.262,17.53,-7.16,-112.83,-0.18,-0.3,-0.37,0.13,0.31,0.97,1000
16:08:50.266,17.53,-7.16,-112.83,-0.3,-0.3,-0.61,0.13,0.31,0.97,1000
16:08:50.266,17.53,-7.16,-112.83,-0.24,-0.37,-0.55,0.13,0.31,0.97,1000
16:08:50.267,17.53,-7.16,-112.83,-0.18,-0.3,-0.3,0.13,0.31,0.97,1000
16:08:50.269,17.53,-7.16,-112.83,-0.37,-0.24,-0.67,0.13,0.31,0.97,1000
16:08:50.271,17.53,-7.16,-112.83,-0.18,-0.37,-0.43,0.13,0.31,0.97,1000
16:08:50.273,17.53,-7.16,-112.83,-0.18,-0.37,-0.37,0.13,0.31,0.97,1000
16:08:50.276,17.53,-7.16,-112.83,-0.12,-0.24,-0.49,0.13,0.31,0.97,1000
16:08:50.278,17.53,-7.16,-112.83,-0.18,-0.3,-0.43,0.13,0.31,0.97,1000
16:08:50.279,17.53,-7.16,-112.83,-0.18,-0.24,-0.43,0.13,0.31,0.97,1000
16:08:50.282,17.53,-7.16,-112.84,-0.18,-0.18,-0.55,0.13,0.31,0.97,1000
16:08:50.284,17.53,-7.16,-112.84,-0.3,-0.06,-0.43,0.13,0.31,0.97,1000
16:08:50.286,17.53,-7.16,-112.84,-0.18,-0.24,-0.55,0.13,0.31,0.97,1000
16:08:50.287,17.53,-7.16,-112.84,-0.18,-0.12,-0.37,0.13,0.31,0.98,1000
16:08:50.289,17.53,-7.16,-112.84,-0.18,-0.12,-0.37,0.13,0.31,0.97,1000
16:08:50.292,17.53,-7.16,-112.84,-0.18,-0.24,-0.67,0.13,0.31,0.97,1000
16:08:50.293,17.53,-7.16,-112.84,-0.18,-0.18,-0.43,0.13,0.31,0.97,1000
16:08:50.296,17.53,-7.16,-112.84,-0.18,-0.18,-0.49,0.13,0.31,0.97,1000
16:08:50.298,17.53,-7.16,-112.84,-0.3,-0.18,-0.55,0.13,0.31,0.98,1000
16:08:50.300,17.53,-7.16,-112.84,-0.24,-0.3,-0.55,0.13,0.31,0.97,1000
16:08:50.301,17.53,-7.16,-112.84,-0.18,-0.24,-0.73,0.12,0.31,0.97,1000
16:08:50.304,17.53,-7.16,-112.84,-0.24,-0.18,-0.67,0.13,0.31,0.97,1000
16:08:50.306,17.53,-7.16,-112.84,-0.12,-0.3,-0.43,0.12,0.31,0.97,1000
16:08:50.307,17.53,-7.16,-112.84,-0.24,-0.24,-0.3,0.13,0.31,0.97,1000
16:08:50.309,17.53,-7.16,-112.84,-0.3,-0.24,-0.37,0.13,0.31,0.97,1000
16:08:50.311,17.53,-7.16,-112.84,-0.37,-0.24,-0.43,0.13,0.31,0.97,1000
16:08:50.315,17.53,-7.16,-112.85,-0.18,-0.12,-0.43,0.13,0.31,0.97,1000
16:08:50.315,17.53,-7.16,-112.85,-0.43,-0.12,-0.43,0.12,0.31,0.97,1000
16:08:50.317,17.53,-7.16,-112.85,-0.24,-0.24,-0.55,0.13,0.31,0.97,1000
16:08:50.319,17.53,-7.16,-112.85,-0.18,-0.18,-0.43,0.13,0.31,0.97,1000
16:08:50.322,17.53,-7.16,-112.85,-0.18,-0.3,-0.55,0.13,0.31,0.97,1000
16:08:50.330,17.53,-7.16,-112.85,-0.24,-0.24,-0.61,0.12,0.31,0.97,1000
16:08:50.331,17.53,-7.16,-112.85,-0.24,-0.24,-0.49,0.12,0.31,0.97,1000
16:08:50.331,17.53,-7.16,-112.85,-0.24,-0.18,-0.3,0.13,0.31,0.97,1000
16:08:50.331,17.53,-7.16,-112.85,-0.18,-0.43,-0.49,0.13,0.31,0.97,1000
16:08:50.343,17.53,-7.16,-112.85,-0.18,-0.3,-0.55,0.12,0.31,0.97,1000
16:08:50.343,17.53,-7.16,-112.85,-0.12,-0.3,-0.37,0.13,0.31,0.97,1000
16:08:50.343,17.53,-7.16,-112.85,-0.12,-0.18,-0.37,0.13,0.31,0.97,1000
16:08:50.343,17.53,-7.16,-112.85,-0.24,-0.06,-0.3,0.13,0.31,0.97,1000
16:08:50.343,17.53,-7.16,-112.85,-0.37,-0.12,-0.37,0.13,0.31,0.97,1000
16:08:50.343,17.53,-7.16,-112.85,-0.18,-0.24,-0.3,0.12,0.31,0.97,1000
16:08:50.344,17.53,-7.16,-112.85,-0.18,-0.24,-0.43,0.13,0.31,0.97,1000
16:08:50.345,17.53,-7.16,-112.85,-0.18,-0.06,-0.3,0.13,0.31,0.97,1000
16:08:50.348,17.53,-7.16,-112.86,-0.18,-0.12,-0.49,0.13,0.31,0.97,1000
16:08:50.349,17.53,-7.16,-112.86,-0.24,-0.18,-0.3,0.13,0.31,0.97,1000
16:08:50.351,17.53,-7.16,-112.86,-0.18,-0.24,-0.37,0.13,0.31,0.97,1000
16:08:50.353,17.53,-7.16,-112.86,-0.3,-0.3,-0.3,0.13,0.31,0.97,1000
16:08:50.355,17.53,-7.16,-112.86,-0.18,-0.06,-0.43,0.13,0.31,0.97,1000
16:08:50.357,17.53,-7.16,-112.86,-0.43,-0.18,-0.3,0.12,0.31,0.97,1000
16:08:50.359,17.53,-7.16,-112.86,-0.3,-0.18,-0.49,0.13,0.31,0.97,1000
16:08:50.361,17.53,-7.16,-112.86,-0.24,-0.06,-0.24,0.13,0.31,0.97,1000
16:08:50.363,17.53,-7.16,-112.86,-0.12,-0.3,-0.49,0.13,0.31,0.97,1000
16:08:50.365,17.53,-7.16,-112.86,-0.3,-0.18,-0.3,0.13,0.31,0.97,1000
16:08:50.368,17.53,-7.16,-112.86,-0.18,-0.18,-0.49,0.13,0.31,0.97,1000
16:08:50.371,17.53,-7.16,-112.86,-0.18,-0.3,-0.43,0.13,0.31,0.97,1000
16:08:50.371,17.53,-7.16,-112.86,-0.18,-0.3,-0.61,0.13,0.31,0.97,1000
16:08:50.373,17.53,-7.16,-112.86,-0.3,-0.3,-0.55,0.13,0.31,0.97,1000
16:08:50.375,17.53,-7.16,-112.86,-0.24,-0.12,-0.49,0.13,0.31,0.97,1000
16:08:50.377,17.53,-7.16,-112.86,-0.24,-0.24,-0.43,0.13,0.31,0.97,1000
16:08:50.380,17.53,-7.16,-112.86,-0.24,-0.37,-0.37,0.13,0.31,0.97,1000
16:08:50.381,17.53,-7.16,-112.87,-0.3,-0.24,-0.49,0.13,0.31,0.97,1000
16:08:50.383,17.53,-7.16,-112.87,-0.24,-0.18,-0.55,0.13,0.31,0.97,1000
16:08:50.385,17.53,-7.16,-112.87,-0.24,-0.37,-0.43,0.13,0.31,0.97,1000
16:08:50.388,17.53,-7.16,-112.87,-0.18,-0.37,-0.43,0.13,0.31,0.97,1000
16:08:50.390,17.53,-7.16,-112.87,-0.37,-0.24,-0.55,0.13,0.31,0.97,1000
16:08:50.392,17.53,-7.16,-112.87,-0.18,-0.37,-0.37,0.13,0.31,0.97,1000
16:08:50.394,17.53,-7.16,-112.87,-0.3,-0.24,-0.43,0.13,0.31,0.97,1000
16:08:50.395,17.53,-7.16,-112.87,-0.18,-0.18,-0.37,0.13,0.31,0.97,1000
16:08:50.398,17.53,-7.16,-112.87,-0.18,-0.12,-0.43,0.13,0.31,0.97,1000
16:08:50.400,17.53,-7.16,-112.87,-0.18,-0.3,-0.37,0.13,0.31,0.97,1000
16:08:50.401,17.53,-7.16,-112.87,-0.24,-0.18,-0.3,0.13,0.31,0.97,1000
16:08:50.404,17.53,-7.16,-112.87,-0.24,-0.18,-0.3,0.13,0.31,0.97,1000
16:08:50.405,17.53,-7.16,-112.87,-0.24,-0.24,-0.3,0.13,0.31,0.97,1000
16:08:50.409,17.53,-7.16,-112.87,-0.18,-0.37,-0.3,0.13,0.31,0.98,1000
16:08:50.410,17.53,-7.16,-112.87,-0.24,-0.24,-0.49,0.13,0.31,0.97,1000
16:08:50.411,17.53,-7.16,-112.87,-0.37,-0.24,-0.43,0.13,0.31,0.97,1000
16:08:50.414,17.53,-7.16,-112.87,-0.18,-0.12,-0.55,0.13,0.31,0.97,1000
16:08:50.418,17.53,-7.16,-112.88,-0.18,-0.18,-0.43,0.13,0.31,0.97,1000
16:08:50.418,17.53,-7.16,-112.88,-0.24,-0.37,-0.61,0.13,0.31,0.97,1000
16:08:50.422,17.53,-7.16,-112.88,-0.18,-0.24,-0.61,0.13,0.31,0.97,1000
16:08:50.422,17.53,-7.16,-112.88,-0.24,-0.3,-0.43,0.13,0.31,0.98,1000
16:08:50.423,17.53,-7.16,-112.88,-0.18,-0.3,-0.55,0.13,0.31,0.97,1000
16:08:50.425,17.53,-7.16,-112.88,-0.24,-0.24,-0.3,0.13,0.31,0.97,1000
16:08:50.443,17.53,-7.16,-112.88,-0.18,-0.06,-0.49,0.13,0.31,0.97,1000
16:08:50.444,17.53,-7.16,-112.88,-0.24,-0.24,-0.43,0.13,0.31,0.97,1000
16:08:50.444,17.53,-7.16,-112.88,-0.24,-0.24,-0.49,0.13,0.31,0.98,1000
16:08:50.444,17.53,-7.16,-112.88,-0.18,-0.3,-0.37,0.13,0.31,0.98,1000
16:08:50.444,17.53,-7.16,-112.88,-0.18,-0.12,-0.61,0.13,0.31,0.98,1000
16:08:50.444,17.53,-7.16,-112.88,-0.18,-0.12,-0.67,0.12,0.31,0.98,1000
16:08:50.444,17.53,-7.16,-112.88,-0.24,-0.18,-0.49,0.12,0.31,0.97,1000
16:08:50.444,17.53,-7.16,-112.88,-0.18,-0.24,-0.37,0.12,0.31,0.97,1000
16:08:50.444,17.53,-7.16,-112.88,-0.18,-0.12,-0.43,0.13,0.31,0.97,1000
16:08:50.445,17.53,-7.16,-112.89,-0.24,-0.37,-0.3,0.13,0.31,0.97,1000
16:08:50.449,17.53,-7.16,-112.89,-0.18,-0.18,-0.3,0.13,0.31,0.98,1000
16:08:50.449,17.53,-7.16,-112.89,-0.24,-0.24,-0.49,0.13,0.31,0.97,1000
16:08:50.451,17.53,-7.16,-112.89,-0.3,-0.3,-0.49,0.13,0.31,0.97,1000
16:08:50.453,17.53,-7.16,-112.89,-0.24,-0.18,-0.61,0.13,0.31,0.98,1000
16:08:50.455,17.53,-7.16,-112.89,-0.18,-0.24,-0.3,0.13,0.31,0.97,1000
16:08:50.457,17.53,-7.16,-112.89,-0.24,-0.37,-0.43,0.13,0.31,0.97,1000
16:08:50.459,17.53,-7.16,-112.89,-0.18,-0.06,-0.37,0.13,0.31,0.97,1000
16:08:50.462,17.53,-7.16,-112.89,-0.24,-0.3,-0.3,0.13,0.31,0.97,1000
16:08:50.464,17.53,-7.16,-112.89,-0.18,-0.24,-0.3,0.13,0.31,0.97,1000
16:08:50.467,17.53,-7.16,-112.89,-0.18,-0.24,-0.43,0.13,0.31,0.97,1000
16:08:50.467,17.53,-7.16,-112.89,-0.24,-0.18,-0.43,0.13,0.31,0.97,1000
16:08:50.470,17.53,-7.16,-112.89,-0.3,-0.12,-0.55,0.13,0.31,0.97,1000
16:08:50.474,17.53,-7.16,-112.89,-0.24,-0.06,-0.49,0.13,0.31,0.97,1000
16:08:50.474,17.53,-7.16,-112.89,-0.18,-0.06,-0.49,0.13,0.31,0.98,1000
16:08:50.476,17.53,-7.16,-112.9,-0.18,-0.18,-0.49,0.13,0.31,0.97,1000
16:08:50.477,17.53,-7.16,-112.9,-0.18,-0.24,-0.55,0.13,0.31,0.97,1000
16:08:50.479,17.53,-7.16,-112.9,-0.18,-0.24,-0.43,0.13,0.31,0.97,1000
16:08:50.481,17.53,-7.16,-112.9,-0.24,-0.06,-0.3,0.13,0.31,0.97,1000
16:08:50.483,17.53,-7.16,-112.9,-0.18,-0.12,-0.43,0.13,0.31,0.97,1000
16:08:50.485,17.53,-7.16,-112.9,-0.18,-0.18,-0.55,0.13,0.31,0.97,1000
16:08:50.487,17.53,-7.16,-112.9,-0.18,-0.06,-0.49,0.13,0.31,0.97,1000
16:08:50.491,17.53,-7.16,-112.9,-0.24,-0.18,-0.43,0.13,0.31,0.97,1000
16:08:50.491,17.53,-7.16,-112.9,-0.18,-0.37,-0.3,0.13,0.31,0.97,1000
16:08:50.494,17.53,-7.16,-112.9,-0.18,-0.3,-0.3,0.13,0.31,0.97,1000
16:08:50.495,17.53,-7.16,-112.9,-0.24,-0.3,-0.55,0.13,0.31,0.97,1000
16:08:50.497,17.53,-7.16,-112.9,-0.24,-0.24,-0.55,0.13,0.31,0.97,1000
16:08:50.501,17.53,-7.16,-112.9,-0.24,-0.24,-0.49,0.13,0.31,0.97,1000
16:08:50.502,17.53,-7.16,-112.9,-0.18,-0.3,-0.49,0.12,0.31,0.97,1000
16:08:50.503,17.53,-7.16,-112.9,-0.24,-0.18,-0.43,0.13,0.31,0.97,1000
16:08:50.505,17.53,-7.16,-112.9,-0.24,-0.3,-0.37,0.13,0.31,0.97,1000
16:08:50.508,17.53,-7.16,-112.91,-0.18,-0.18,-0.37,0.13,0.31,0.97,1000
16:08:50.509,17.53,-7.16,-112.91,-0.18,-0.24,-0.43,0.13,0.31,0.97,1000
16:08:50.511,17.53,-7.16,-112.91,-0.18,-0.12,-0.49,0.13,0.31,0.97,1000
16:08:50.513,17.53,-7.15,-112.91,-0.18,-0.06,-0.55,0.13,0.31,0.97,1000
16:08:50.515,17.53,-7.15,-112.91,-0.18,-0.12,-0.49,0.13,0.31,0.97,1000
16:08:50.517,17.53,-7.15,-112.91,-0.18,-0.3,-0.55,0.13,0.31,0.97,1000
16:08:50.520,17.53,-7.15,-112.91,-0.18,-0.37,-0.55,0.13,0.31,0.97,1000
16:08:50.521,17.53,-7.15,-112.91,-0.18,-0.24,-0.61,0.13,0.31,0.97,1000
16:08:50.524,17.53,-7.15,-112.91,-0.18,-0.18,-0.3,0.13,0.31,0.97,1000
16:08:50.526,17.53,-7.15,-112.91,-0.18,-0.18,-0.37,0.13,0.31,0.97,1000
16:08:50.527,17.53,-7.15,-112.91,-0.12,-0.37,-0.24,0.13,0.31,0.97,1000
16:08:50.537,17.53,-7.15,-112.91,-0.18,-0.06,-0.43,0.13,0.31,0.97,1000
16:08:50.544,17.53,-7.15,-112.91,-0.24,-0.12,-0.55,0.13,0.31,0.97,1000
16:08:50.544,17.53,-7.15,-112.91,-0.3,-0.24,-0.55,0.13,0.31,0.97,1000
16:08:50.544,17.53,-7.15,-112.91,-0.24,-0.43,-0.55,0.13,0.31,0.97,1000
16:08:50.544,17.53,-7.15,-112.91,-0.24,-0.24,-0.55,0.13,0.31,0.97,1000
16:08:50.544,17.53,-7.15,-112.92,-0.12,-0.3,-0.49,0.13,0.31,0.97,1000
16:08:50.544,17.53,-7.15,-112.92,0.0,-0.24,-0.37,0.13,0.31,0.97,1000
16:08:50.544,17.53,-7.15,-112.92,-0.06,-0.18,-0.3,0.13,0.31,0.97,1000
16:08:50.546,17.53,-7.15,-112.92,-0.24,-0.3,-0.55,0.13,0.31,0.97,1000
16:08:50.548,17.53,-7.15,-112.92,-0.18,-0.18,-0.61,0.13,0.31,0.97,1000
16:08:50.550,17.53,-7.15,-112.92,-0.18,-0.18,-0.61,0.13,0.31,0.97,1000
16:08:50.553,17.53,-7.15,-112.92,-0.18,-0.24,-0.49,0.13,0.31,0.97,1000
16:08:50.553,17.53,-7.15,-112.92,-0.18,-0.37,-0.43,0.13,0.31,0.97,1000
16:08:50.555,17.53,-7.15,-112.92,-0.24,-0.3,-0.55,0.13,0.31,0.97,1000
16:08:50.557,17.53,-7.15,-112.92,-0.37,-0.12,-0.55,0.13,0.31,0.97,1000
16:08:50.559,17.53,-7.16,-112.92,-0.37,-0.3,-0.43,0.13,0.31,0.97,1000
16:08:50.561,17.53,-7.16,-112.92,-0.3,-0.3,-0.37,0.13,0.31,0.97,1000
16:08:50.563,17.53,-7.16,-112.92,-0.24,-0.12,-0.55,0.13,0.31,0.97,1000
16:08:50.565,17.53,-7.16,-112.93,-0.12,-0.24,-0.37,0.13,0.31,0.97,1000
16:08:50.567,17.53,-7.16,-112.93,-0.18,-0.24,-0.55,0.13,0.31,0.97,1000
16:08:50.569,17.53,-7.16,-112.93,-0.18,-0.3,-0.43,0.13,0.31,0.98,1000
16:08:50.573,17.53,-7.16,-112.93,-0.24,-0.18,-0.55,0.13,0.31,0.97,1000
16:08:50.573,17.53,-7.16,-112.93,-0.24,-0.24,-0.55,0.13,0.31,0.97,1000
16:08:50.577,17.53,-7.16,-112.93,-0.18,-0.3,-0.3,0.13,0.31,0.97,1000
16:08:50.578,17.53,-7.16,-112.93,-0.24,-0.24,-0.55,0.13,0.31,0.97,1000
16:08:50.579,17.53,-7.16,-112.93,-0.18,-0.37,-0.3,0.13,0.31,0.97,1000
16:08:50.581,17.53,-7.16,-112.93,-0.24,-0.18,-0.49,0.13,0.31,0.98,1000
16:08:50.584,17.53,-7.16,-112.93,-0.18,-0.06,-0.37,0.13,0.31,0.97,1000
16:08:50.586,17.53,-7.16,-112.93,-0.24,-0.24,-0.43,0.13,0.31,0.97,1000
16:08:50.587,17.53,-7.16,-112.93,-0.12,-0.12,-0.43,0.13,0.31,0.97,1000
16:08:50.589,17.53,-7.16,-112.93,-0.12,-0.3,-0.3,0.13,0.31,0.97,1000
16:08:50.591,17.53,-7.16,-112.93,-0.24,-0.12,-0.3,0.13,0.31,0.98,1000
16:08:50.593,17.53,-7.16,-112.93,-0.18,-0.24,-0.37,0.13,0.31,0.97,1000
16:08:50.595,17.53,-7.16,-112.93,-0.3,-0.3,-0.43,0.13,0.31,0.98,1000
16:08:50.597,17.53,-7.16,-112.93,-0.3,-0.18,-0.49,0.13,0.31,0.97,1000
16:08:50.599,17.53,-7.16,-112.94,-0.06,-0.18,-0.43,0.13,0.31,0.97,1000
16:08:50.603,17.53,-7.16,-112.94,-0.24,-0.12,-0.61,0.13,0.31,0.97,1000
16:08:50.604,17.53,-7.16,-112.94,-0.3,-0.18,-0.61,0.13,0.31,0.97,1000
16:08:50.605,17.53,-7.16,-112.94,-0.18,-0.3,-0.43,0.13,0.31,0.97,1000
16:08:50.607,17.53,-7.16,-112.94,-0.24,-0.24,-0.55,0.13,0.31,0.97,1000
16:08:50.609,17.53,-7.16,-112.94,-0.18,-0.24,-0.43,0.13,0.31,0.97,1000
16:08:50.612,17.53,-7.16,-112.94,-0.18,-0.18,-0.55,0.13,0.31,0.97,1000
16:08:50.613,17.53,-7.16,-112.94,-0.12,-0.24,-0.61,0.13,0.31,0.97,1000
16:08:50.616,17.53,-7.16,-112.94,-0.12,-0.18,-0.43,0.13,0.31,0.97,1000
16:08:50.617,17.53,-7.16,-112.94,-0.24,-0.18,-0.49,0.13,0.31,0.97,1000
16:08:50.621,17.53,-7.16,-112.94,-0.18,-0.3,-0.55,0.13,0.31,0.98,1000
16:08:50.622,17.53,-7.16,-112.94,-0.24,-0.3,-0.3,0.13,0.31,0.97,1000
16:08:50.623,17.53,-7.16,-112.94,-0.18,-0.3,-0.37,0.13,0.31,0.98,1000
16:08:50.625,17.53,-7.16,-112.94,-0.3,-0.37,-0.43,0.13,0.31,0.97,1000
16:08:50.627,17.53,-7.16,-112.94,-0.18,-0.12,-0.37,0.13,0.31,0.97,1000
16:08:50.630,17.53,-7.16,-112.94,-0.18,-0.24,-0.49,0.13,0.31,0.97,1000
16:08:50.646,17.53,-7.16,-112.94,-0.3,-0.18,-0.3,0.13,0.31,0.97,1000
16:08:50.646,17.53,-7.16,-112.94,-0.18,-0.24,-0.3,0.13,0.31,0.98,1000
16:08:50.646,17.53,-7.16,-112.95,-0.18,-0.3,-0.43,0.13,0.31,0.97,1000
16:08:50.646,17.53,-7.16,-112.95,-0.24,-0.3,-0.3,0.13,0.31,0.97,1000
16:08:50.646,17.53,-7.16,-112.95,-0.24,-0.18,-0.3,0.13,0.31,0.97,1000
16:08:50.646,17.53,-7.16,-112.95,-0.18,-0.24,-0.55,0.13,0.31,0.97,1000
16:08:50.646,17.53,-7.16,-112.95,-0.18,-0.24,-0.61,0.13,0.31,0.97,1000
16:08:50.646,17.53,-7.16,-112.95,-0.18,-0.3,-0.61,0.13,0.31,0.97,1000
16:08:50.648,17.53,-7.16,-112.95,-0.18,-0.18,-0.43,0.13,0.31,0.97,1000
16:08:50.649,17.53,-7.16,-112.95,-0.12,-0.37,-0.49,0.13,0.31,0.97,1000
16:08:50.651,17.53,-7.16,-112.95,-0.24,-0.24,-0.55,0.13,0.31,0.97,1000
16:08:50.656,17.53,-7.16,-112.95,-0.24,-0.3,-0.3,0.13,0.31,0.97,1000
16:08:50.656,17.53,-7.16,-112.95,-0.24,-0.24,-0.37,0.13,0.31,0.97,1000
16:08:50.657,17.53,-7.16,-112.95,-0.18,-0.37,-0.37,0.13,0.31,0.97,1000
16:08:50.659,17.53,-7.16,-112.95,-0.18,-0.3,-0.43,0.13,0.31,0.97,1000
16:08:50.661,17.53,-7.16,-112.95,-0.24,-0.24,-0.49,0.13,0.31,0.97,1000
16:08:50.663,17.53,-7.16,-112.95,-0.18,-0.18,-0.3,0.13,0.31,0.97,1000
16:08:50.666,17.53,-7.16,-112.95,-0.24,-0.3,-0.3,0.13,0.31,0.97,1000
16:08:50.669,17.53,-7.16,-112.95,-0.18,-0.18,-0.37,0.13,0.31,0.97,1000
16:08:50.669,17.53,-7.16,-112.96,-0.18,-0.12,-0.3,0.13,0.31,0.97,1000
16:08:50.671,17.53,-7.16,-112.96,-0.3,-0.37,-0.37,0.13,0.31,0.97,1000
16:08:50.679,17.53,-7.16,-112.96,-0.37,-0.12,-0.43,0.13,0.31,0.97,1000
16:08:50.679,17.53,-7.16,-112.96,-0.18,-0.18,-0.67,0.13,0.31,0.97,1000
16:08:50.679,17.53,-7.16,-112.96,-0.18,-0.18,-0.37,0.13,0.31,0.97,1000
16:08:50.679,17.53,-7.16,-112.96,-0.3,-0.24,-0.3,0.13,0.31,0.97,1000
16:08:50.682,17.53,-7.16,-112.96,-0.18,-0.12,-0.43,0.13,0.31,0.97,1000
16:08:50.683,17.53,-7.16,-112.96,-0.3,-0.12,-0.49,0.13,0.31,0.97,1000
16:08:50.685,17.53,-7.16,-112.96,-0.18,-0.12,-0.49,0.13,0.31,0.97,1000
16:08:50.689,17.53,-7.16,-112.96,-0.24,-0.12,-0.37,0.13,0.31,0.97,1000
16:08:50.690,17.53,-7.16,-112.96,-0.24,-0.18,-0.37,0.13,0.31,0.97,1000
16:08:50.691,17.53,-7.16,-112.96,-0.24,-0.18,-0.37,0.13,0.31,0.97,1000
16:08:50.693,17.53,-7.16,-112.96,-0.24,-0.3,-0.3,0.13,0.31,0.97,1000
16:08:50.696,17.53,-7.16,-112.96,-0.24,-0.24,-0.43,0.13,0.31,0.97,1000
16:08:50.698,17.53,-7.16,-112.96,-0.18,-0.3,-0.67,0.13,0.31,0.98,1000
16:08:50.699,17.53,-7.16,-112.96,-0.24,-0.43,-0.49,0.13,0.31,0.97,1000
16:08:50.701,17.53,-7.16,-112.97,-0.24,-0.3,-0.49,0.13,0.31,0.97,1000
16:08:50.705,17.53,-7.16,-112.97,-0.18,-0.18,-0.55,0.13,0.31,0.97,1000
16:08:50.706,17.53,-7.16,-112.97,-0.3,-0.18,-0.3,0.13,0.31,0.97,1000
16:08:50.707,17.53,-7.16,-112.97,-0.18,-0.37,-0.55,0.13,0.31,0.97,1000
16:08:50.709,17.53,-7.16,-112.97,-0.18,-0.37,-0.43,0.13,0.31,0.97,1000
16:08:50.711,17.53,-7.16,-112.97,-0.18,-0.18,-0.73,0.13,0.31,0.97,1000
16:08:50.714,17.53,-7.16,-112.97,-0.24,-0.18,-0.43,0.13,0.31,0.97,1000
16:08:50.716,17.53,-7.16,-112.97,-0.24,-0.06,-0.43,0.13,0.31,0.97,1000
16:08:50.717,17.53,-7.16,-112.97,-0.24,-0.24,-0.49,0.13,0.31,0.97,1000
16:08:50.719,17.53,-7.16,-112.97,-0.18,-0.24,-0.43,0.13,0.31,0.97,1000
16:08:50.724,17.53,-7.16,-112.97,-0.24,-0.18,-0.43,0.13,0.31,0.97,1000
16:08:50.724,17.53,-7.16,-112.97,-0.3,-0.24,-0.43,0.13,0.31,0.97,1000
16:08:50.727,17.53,-7.16,-112.97,-0.37,-0.18,-0.49,0.13,0.31,0.97,1000
16:08:50.727,17.53,-7.16,-112.97,-0.3,-0.37,-0.37,0.13,0.31,0.97,1000
16:08:50.730,17.52,-7.16,-112.97,-0.3,-0.3,-0.55,0.13,0.31,0.97,1000
16:08:50.732,17.53,-7.16,-112.98,-0.18,-0.24,-0.43,0.13,0.31,0.97,1000
16:08:50.748,17.53,-7.16,-112.98,-0.24,-0.24,-0.43,0.13,0.31,0.97,1000
16:08:50.749,17.53,-7.16,-112.98,-0.18,-0.24,-0.43,0.13,0.31,0.97,1000
16:08:50.749,17.53,-7.16,-112.98,-0.18,-0.3,-0.3,0.13,0.31,0.97,1000
16:08:50.749,17.53,-7.16,-112.98,-0.18,-0.18,-0.43,0.13,0.31,0.98,1000
16:08:50.749,17.53,-7.16,-112.98,-0.18,-0.37,-0.49,0.13,0.31,0.97,1000
16:08:50.749,17.53,-7.16,-112.98,-0.18,-0.12,-0.49,0.13,0.31,0.97,1000
16:08:50.749,17.53,-7.16,-112.98,-0.24,-0.12,-0.55,0.13,0.31,0.97,1000
16:08:50.749,17.53,-7.16,-112.98,-0.3,-0.18,-0.49,0.13,0.31,0.97,1000
16:08:50.750,17.53,-7.16,-112.98,-0.18,-0.24,-0.61,0.13,0.31,0.97,1000
16:08:50.751,17.53,-7.16,-112.98,-0.3,-0.37,-0.49,0.13,0.31,0.97,1000
16:08:50.753,17.53,-7.17,-112.98,-0.24,-0.43,-0.61,0.13,0.31,0.97,1000
16:08:50.756,17.53,-7.17,-112.98,-0.24,-0.18,-0.55,0.13,0.31,0.97,1000
16:08:50.758,17.53,-7.17,-112.98,-0.18,-0.18,-0.43,0.12,0.31,0.97,1000
16:08:50.759,17.53,-7.17,-112.98,-0.24,-0.3,-0.43,0.13,0.31,0.97,1000
16:08:50.762,17.53,-7.17,-112.99,-0.3,-0.18,-0.55,0.13,0.31,0.97,1000
16:08:50.764,17.53,-7.17,-112.99,-0.24,-0.12,-0.49,0.13,0.31,0.97,1000
16:08:50.765,17.53,-7.17,-112.99,-0.12,-0.24,-0.49,0.13,0.31,0.97,1000
16:08:50.767,17.53,-7.17,-112.99,-0.18,-0.3,-0.55,0.13,0.31,0.97,1000
16:08:50.769,17.53,-7.17,-112.99,-0.18,-0.18,-0.49,0.13,0.31,0.97,1000
16:08:50.772,17.53,-7.17,-112.99,-0.18,-0.18,-0.49,0.13,0.31,0.97,1000
16:08:50.773,17.53,-7.17,-112.99,-0.18,-0.06,-0.55,0.13,0.31,0.97,1000
16:08:50.775,17.53,-7.16,-112.99,-0.12,-0.24,-0.61,0.13,0.31,0.97,1000
16:08:50.777,17.53,-7.16,-112.99,-0.24,-0.12,-0.43,0.13,0.31,0.97,1000
16:08:50.781,17.53,-7.16,-112.99,-0.24,-0.18,-0.55,0.13,0.31,0.97,1000
16:08:50.784,17.53,-7.16,-112.99,-0.24,-0.24,-0.55,0.13,0.31,0.97,1000
16:08:50.784,17.53,-7.16,-112.99,-0.24,-0.12,-0.37,0.13,0.31,0.97,1000
16:08:50.785,17.53,-7.16,-112.99,-0.24,-0.06,-0.37,0.13,0.31,0.98,1000
16:08:50.788,17.53,-7.16,-113.0,-0.24,-0.18,-0.43,0.13,0.31,0.97,1000
16:08:50.789,17.53,-7.16,-113.0,-0.12,-0.18,-0.3,0.13,0.31,0.97,1000
16:08:50.791,17.53,-7.16,-113.0,-0.18,-0.18,-0.37,0.13,0.31,0.97,1000
16:08:50.793,17.53,-7.16,-113.0,-0.24,-0.18,-0.55,0.13,0.31,0.97,1000
16:08:50.796,17.53,-7.16,-113.0,-0.18,-0.24,-0.49,0.13,0.31,0.97,1000
16:08:50.798,17.53,-7.16,-113.0,-0.24,-0.3,-0.43,0.13,0.31,0.97,1000
16:08:50.799,17.53,-7.16,-113.0,-0.18,-0.24,-0.37,0.13,0.31,0.97,1000
16:08:50.801,17.53,-7.16,-113.0,-0.12,-0.24,-0.43,0.13,0.31,0.97,1000
16:08:50.803,17.53,-7.16,-113.0,-0.18,-0.18,-0.3,0.13,0.31,0.97,1000
16:08:50.805,17.53,-7.16,-113.0,-0.18,-0.06,-0.37,0.13,0.31,0.97,1000
16:08:50.808,17.53,-7.16,-113.0,-0.24,-0.24,-0.43,0.13,0.31,0.97,1000
16:08:50.810,17.53,-7.16,-113.0,-0.24,-0.18,-0.55,0.13,0.31,0.97,1000
16:08:50.811,17.53,-7.16,-113.0,-0.24,-0.18,-0.43,0.13,0.31,0.97,1000
16:08:50.813,17.53,-7.17,-113.0,-0.3,-0.24,-0.55,0.13,0.31,0.97,1000
16:08:50.816,17.53,-7.17,-113.0,-0.18,-0.24,-0.37,0.13,0.31,0.97,1000
16:08:50.820,17.53,-7.17,-113.0,-0.3,-0.18,-0.24,0.13,0.31,0.97,1000
16:08:50.821,17.53,-7.17,-113.0,-0.3,-0.18,-0.43,0.12,0.31,0.97,1000
16:08:50.823,17.53,-7.17,-113.0,-0.24,-0.18,-0.37,0.13,0.31,0.97,1000
16:08:50.823,17.53,-7.17,-113.0,-0.18,-0.18,-0.37,0.13,0.31,0.97,1000
16:08:50.826,17.53,-7.17,-113.01,-0.18,-0.24,-0.43,0.13,0.31,0.97,1000
16:08:50.827,17.53,-7.17,-113.01,-0.24,-0.3,-0.55,0.13,0.31,0.97,1000
16:08:50.829,17.53,-7.17,-113.01,-0.18,-0.3,-0.55,0.13,0.31,0.97,1000
16:08:50.831,17.53,-7.17,-113.01,-0.18,-0.3,-0.24,0.13,0.31,0.97,1000
16:08:50.833,17.53,-7.17,-113.01,-0.18,-0.24,-0.37,0.13,0.31,0.97,1000
16:08:50.835,17.53,-7.17,-113.01,-0.24,-0.24,-0.67,0.13,0.31,0.97,1000
16:08:50.839,17.53,-7.17,-113.01,-0.18,-0.24,-0.43,0.13,0.31,0.98,1000
16:08:50.842,17.53,-7.17,-113.01,-0.24,-0.3,-0.55,0.13,0.31,0.98,1000
16:08:50.842,17.53,-7.17,-113.01,-0.37,-0.18,-0.3,0.13,0.31,0.97,1000
16:08:50.844,17.53,-7.17,-113.01,-0.18,-0.3,-0.43,0.13,0.31,0.97,1000
16:08:50.855,17.53,-7.17,-113.01,-0.24,-0.3,-0.55,0.13,0.31,0.97,1000
16:08:50.856,17.53,-7.17,-113.01,-0.24,-0.24,-0.49,0.13,0.31,0.97,1000
16:08:50.856,17.53,-7.17,-113.01,-0.18,-0.12,-0.49,0.13,0.31,0.97,1000
16:08:50.856,17.53,-7.17,-113.01,-0.3,-0.24,-0.49,0.13,0.31,0.97,1000
16:08:50.856,17.53,-7.17,-113.02,-0.18,-0.3,-0.37,0.13,0.31,0.97,1000
16:08:50.856,17.53,-7.17,-113.02,-0.18,-0.12,-0.55,0.13,0.31,0.97,1000
16:08:50.858,17.53,-7.17,-113.02,-0.24,-0.06,-0.55,0.13,0.31,0.97,1000
16:08:50.860,17.53,-7.17,-113.02,-0.18,-0.37,-0.61,0.13,0.31,0.97,1000
16:08:50.861,17.53,-7.17,-113.02,-0.06,-0.37,-0.55,0.13,0.31,0.97,1000
16:08:50.863,17.53,-7.17,-113.02,-0.18,-0.18,-0.43,0.13,0.31,0.97,1000
16:08:50.866,17.53,-7.17,-113.02,-0.24,-0.18,-0.37,0.13,0.31,0.97,1000
16:08:50.867,17.53,-7.17,-113.02,-0.24,-0.24,-0.24,0.13,0.31,0.97,1000
16:08:50.869,17.53,-7.17,-113.02,-0.24,-0.24,-0.55,0.13,0.31,0.97,1000
16:08:50.871,17.53,-7.17,-113.02,-0.18,-0.24,-0.49,0.13,0.31,0.97,1000
16:08:50.873,17.53,-7.17,-113.02,-0.18,-0.3,-0.43,0.13,0.31,0.97,1000
16:08:50.875,17.53,-7.17,-113.02,-0.18,-0.24,-0.49,0.13,0.31,0.97,1000
16:08:50.877,17.53,-7.17,-113.02,-0.18,-0.24,-0.37,0.13,0.31,0.97,1000
16:08:50.880,17.53,-7.17,-113.02,-0.3,-0.24,-0.37,0.13,0.31,0.97,1000
16:08:50.884,17.53,-7.17,-113.02,-0.18,-0.3,-0.43,0.13,0.31,0.97,1000
16:08:50.885,17.53,-7.17,-113.03,-0.12,-0.37,-0.37,0.13,0.31,0.97,1000
16:08:50.886,17.53,-7.17,-113.03,-0.18,-0.3,-0.3,0.13,0.31,0.97,1000
16:08:50.887,17.53,-7.17,-113.03,-0.18,-0.3,-0.61,0.13,0.31,0.97,1000
16:08:50.889,17.53,-7.17,-113.03,-0.24,-0.3,-0.55,0.13,0.31,0.97,1000
16:08:50.893,17.53,-7.17,-113.03,-0.24,-0.3,-0.37,0.13,0.31,0.97,1000
16:08:50.893,17.53,-7.17,-113.03,-0.24,0.0,-0.55,0.13,0.31,0.98,1000
16:08:50.895,17.53,-7.17,-113.03,-0.18,-0.06,-0.61,0.13,0.31,0.97,1000
16:08:50.898,17.53,-7.17,-113.03,-0.24,-0.24,-0.55,0.13,0.31,0.97,1000
16:08:50.900,17.53,-7.17,-113.03,-0.18,-0.3,-0.67,0.13,0.31,0.97,1000
16:08:50.901,17.53,-7.17,-113.03,-0.3,-0.18,-0.49,0.13,0.31,0.97,1000
16:08:50.904,17.53,-7.17,-113.03,-0.24,-0.3,-0.43,0.13,0.31,0.97,1000
16:08:50.907,17.53,-7.17,-113.03,-0.24,-0.18,-0.43,0.13,0.31,0.97,1000
16:08:50.908,17.53,-7.17,-113.03,-0.06,-0.24,-0.37,0.13,0.31,0.97,1000
16:08:50.910,17.53,-7.17,-113.03,-0.06,-0.18,-0.37,0.13,0.31,0.97,1000
16:08:50.912,17.53,-7.17,-113.03,-0.18,-0.12,-0.43,0.13,0.31,0.97,1000
16:08:50.913,17.53,-7.17,-113.04,-0.06,-0.18,-0.55,0.13,0.31,0.97,1000
16:08:50.916,17.53,-7.17,-113.04,-0.18,-0.3,-0.37,0.13,0.31,0.97,1000
16:08:50.919,17.53,-7.17,-113.04,-0.12,-0.12,-0.37,0.13,0.31,0.97,1000
16:08:50.919,17.53,-7.17,-113.04,0.0,-0.24,-0.49,0.13,0.31,0.97,1000
16:08:50.921,17.53,-7.17,-113.04,-0.3,-0.06,-0.43,0.13,0.31,0.97,1000
16:08:50.923,17.53,-7.17,-113.04,-0.24,-0.18,-0.37,0.12,0.31,0.97,1000
16:08:50.929,17.53,-7.17,-113.04,-0.18,-0.3,-0.61,0.13,0.31,0.98,1000
16:08:50.929,17.53,-7.17,-113.04,-0.12,-0.12,-0.49,0.13,0.31,0.97,1000
16:08:50.930,17.53,-7.17,-113.04,-0.18,-0.24,-0.37,0.13,0.31,0.97,1000
16:08:50.931,17.53,-7.17,-113.04,-0.06,-0.24,-0.49,0.13,0.31,0.97,1000
16:08:50.933,17.53,-7.17,-113.04,-0.3,-0.24,-0.3,0.13,0.31,0.97,1000
16:08:50.935,17.53,-7.17,-113.04,-0.3,-0.3,-0.37,0.13,0.31,0.97,1000
16:08:50.937,17.53,-7.17,-113.04,-0.24,-0.3,-0.37,0.13,0.31,0.97,1000
16:08:50.945,17.53,-7.17,-113.04,-0.37,-0.12,-0.49,0.13,0.31,0.97,1000
16:08:50.945,17.53,-7.17,-113.04,-0.06,-0.18,-0.3,0.13,0.31,0.97,1000
16:08:50.945,17.53,-7.17,-113.04,-0.12,-0.18,-0.43,0.13,0.31,0.97,1000
16:08:50.945,17.53,-7.17,-113.05,-0.18,-0.3,-0.43,0.13,0.31,0.97,1000
16:08:50.957,17.53,-7.17,-113.05,-0.37,-0.3,-0.3,0.13,0.31,0.97,1000
16:08:50.958,17.53,-7.17,-113.05,-0.3,-0.3,-0.43,0.13,0.31,0.97,1000
16:08:50.958,17.53,-7.17,-113.05,-0.18,-0.18,-0.37,0.13,0.31,0.97,1000
16:08:50.958,17.53,-7.17,-113.05,-0.18,-0.24,-0.37,0.13,0.31,0.97,1000
16:08:50.958,17.53,-7.17,-113.05,-0.12,-0.18,-0.37,0.13,0.31,0.97,1000
16:08:50.958,17.53,-7.17,-113.05,-0.06,-0.24,-0.43,0.13,0.31,0.97,1000
16:08:50.959,17.53,-7.17,-113.05,-0.12,-0.3,-0.37,0.13,0.31,0.97,1000
16:08:50.961,17.53,-7.17,-113.05,-0.18,-0.12,-0.3,0.13,0.31,0.97,1000
16:08:50.963,17.53,-7.17,-113.05,-0.24,-0.24,-0.3,0.13,0.31,0.97,1000
16:08:50.965,17.53,-7.17,-113.05,-0.12,-0.24,-0.37,0.13,0.31,0.97,1000
16:08:50.967,17.53,-7.17,-113.05,-0.3,-0.37,-0.55,0.13,0.31,0.97,1000
16:08:50.969,17.53,-7.17,-113.05,-0.3,-0.06,-0.43,0.13,0.31,0.97,1000
16:08:50.971,17.53,-7.17,-113.05,-0.37,-0.24,-0.3,0.13,0.31,0.97,1000
16:08:50.973,17.53,-7.17,-113.05,-0.18,-0.3,-0.49,0.13,0.31,0.97,1000
16:08:50.975,17.53,-7.17,-113.05,-0.3,-0.24,-0.49,0.13,0.31,0.97,1000
16:08:50.977,17.53,-7.17,-113.05,-0.12,-0.06,-0.55,0.13,0.31,0.97,1000
16:08:50.979,17.53,-7.17,-113.06,-0.18,-0.3,-0.55,0.13,0.31,0.97,1000
16:08:50.983,17.53,-7.17,-113.06,-0.24,-0.3,-0.43,0.13,0.31,0.97,1000
16:08:50.983,17.53,-7.17,-113.06,-0.24,-0.3,-0.43,0.13,0.31,0.98,1000
16:08:50.986,17.53,-7.17,-113.06,-0.37,-0.24,-0.49,0.13,0.31,0.97,1000
16:08:50.987,17.53,-7.17,-113.06,-0.18,-0.24,-0.3,0.13,0.31,0.97,1000
16:08:50.989,17.53,-7.17,-113.06,-0.18,-0.12,-0.37,0.13,0.31,0.97,1000
16:08:50.991,17.53,-7.17,-113.06,-0.24,-0.18,-0.43,0.12,0.31,0.97,1000
16:08:50.994,17.53,-7.17,-113.06,-0.18,-0.37,-0.43,0.12,0.31,0.97,1000
16:08:50.996,17.53,-7.17,-113.06,-0.37,-0.3,-0.37,0.13,0.31,0.97,1000
16:08:50.997,17.53,-7.17,-113.06,-0.18,-0.37,-0.37,0.13,0.31,0.97,1000
16:08:50.999,17.53,-7.17,-113.06,-0.24,-0.3,-0.49,0.13,0.31,0.97,1000
16:08:51.001,17.53,-7.17,-113.06,-0.3,-0.3,-0.49,0.13,0.31,0.97,1000
16:08:51.004,17.53,-7.17,-113.06,-0.24,-0.18,-0.49,0.13,0.31,0.97,1000
16:08:51.005,17.53,-7.17,-113.06,-0.06,-0.12,-0.3,0.13,0.31,0.97,1000
16:08:51.007,17.53,-7.17,-113.06,-0.12,-0.12,-0.3,0.13,0.31,0.97,1000
16:08:51.009,17.53,-7.17,-113.06,-0.18,-0.3,-0.3,0.13,0.31,0.97,1000
16:08:51.015,17.53,-7.17,-113.06,-0.18,-0.3,-0.49,0.13,0.31,0.97,1000
16:08:51.015,17.53,-7.17,-113.07,-0.06,-0.3,-0.3,0.13,0.31,0.98,1000
16:08:51.016,17.53,-7.17,-113.07,-0.24,-0.18,-0.49,0.13,0.31,0.97,1000
16:08:51.017,17.53,-7.17,-113.07,-0.3,-0.12,-0.3,0.13,0.31,0.97,1000
16:08:51.020,17.53,-7.17,-113.07,-0.18,-0.3,-0.37,0.13,0.31,0.97,1000
16:08:51.021,17.53,-7.17,-113.07,-0.12,-0.18,-0.55,0.13,0.31,0.97,1000
16:08:51.023,17.53,-7.17,-113.07,-0.37,-0.24,-0.37,0.13,0.31,0.97,1000
16:08:51.025,17.53,-7.17,-113.07,-0.24,-0.3,-0.24,0.13,0.31,0.97,1000
16:08:51.028,17.53,-7.17,-113.07,-0.3,-0.24,-0.49,0.13,0.31,0.97,1000
16:08:51.030,17.53,-7.17,-113.07,-0.3,-0.24,-0.55,0.13,0.31,0.97,1000
16:08:51.033,17.53,-7.17,-113.07,-0.24,-0.18,-0.37,0.13,0.31,0.97,1000
16:08:51.033,17.53,-7.17,-113.07,-0.18,-0.12,-0.3,0.13,0.31,0.97,1000
16:08:51.035,17.53,-7.17,-113.07,-0.18,-0.3,-0.3,0.13,0.31,0.97,1000
16:08:51.037,17.53,-7.17,-113.07,-0.24,-0.12,-0.61,0.13,0.31,0.97,1000
16:08:51.039,17.53,-7.17,-113.07,-0.18,-0.3,-0.55,0.13,0.31,0.97,1000
16:08:51.044,17.53,-7.17,-113.07,-0.18,-0.24,-0.49,0.13,0.31,0.97,1000
16:08:51.059,17.53,-7.17,-113.07,-0.3,-0.3,-0.43,0.13,0.31,0.97,1000
16:08:51.059,17.53,-7.17,-113.07,-0.18,-0.12,-0.3,0.13,0.31,0.97,1000
16:08:51.059,17.53,-7.17,-113.07,-0.18,-0.18,-0.43,0.13,0.31,0.97,1000
16:08:51.059,17.53,-7.17,-113.08,-0.24,-0.24,-0.37,0.13,0.31,0.97,1000
16:08:51.059,17.53,-7.17,-113.08,-0.12,-0.3,-0.3,0.13,0.31,0.97,1000
16:08:51.059,17.53,-7.17,-113.08,-0.3,-0.3,-0.55,0.13,0.31,0.97,1000
16:08:51.059,17.53,-7.17,-113.08,-0.18,-0.37,-0.37,0.13,0.31,0.98,1000
16:08:51.059,17.53,-7.17,-113.08,-0.24,-0.18,-0.49,0.13,0.31,0.97,1000
16:08:51.060,17.53,-7.17,-113.08,-0.24,-0.06,-0.49,0.12,0.31,0.97,1000
16:08:51.061,17.53,-7.17,-113.08,-0.18,-0.24,-0.37,0.13,0.31,0.97,1000
16:08:51.067,17.53,-7.17,-113.08,-0.24,-0.12,-0.37,0.13,0.31,0.97,1000
16:08:51.067,17.53,-7.17,-113.08,-0.12,-0.3,-0.49,0.12,0.31,0.97,1000
16:08:51.068,17.53,-7.17,-113.08,-0.24,-0.12,-0.43,0.13,0.31,0.97,1000
16:08:51.069,17.53,-7.17,-113.08,-0.18,-0.3,-0.3,0.12,0.32,0.97,1000
16:08:51.071,17.53,-7.17,-113.08,-0.12,-0.3,-0.43,0.12,0.31,0.97,1000
16:08:51.074,17.53,-7.17,-113.08,0.06,-0.43,-0.37,0.13,0.31,0.97,1000
16:08:51.076,17.53,-7.17,-113.08,-0.18,-0.24,-0.43,0.13,0.31,0.97,1000
16:08:51.077,17.53,-7.17,-113.08,-0.18,-0.24,-0.55,0.13,0.31,0.97,1000
16:08:51.079,17.53,-7.17,-113.08,-0.24,-0.18,-0.43,0.13,0.31,0.97,1000
16:08:51.081,17.53,-7.17,-113.08,-0.18,-0.12,-0.49,0.13,0.31,0.97,1000
16:08:51.088,17.53,-7.17,-113.09,-0.18,-0.24,-0.3,0.13,0.31,0.97,1000
16:08:51.088,17.53,-7.17,-113.09,-0.18,-0.12,-0.3,0.13,0.31,0.97,1000
16:08:51.089,17.53,-7.17,-113.09,-0.18,-0.06,-0.37,0.12,0.31,0.97,1000
16:08:51.090,17.53,-7.17,-113.09,-0.24,-0.12,-0.49,0.12,0.31,0.97,1000
16:08:51.091,17.53,-7.17,-113.09,-0.12,-0.18,-0.49,0.12,0.31,0.97,1000
16:08:51.094,17.53,-7.17,-113.09,-0.24,-0.3,-0.43,0.13,0.31,0.98,1000
16:08:51.096,17.53,-7.17,-113.09,-0.3,-0.24,-0.49,0.13,0.31,0.98,1000
16:08:51.097,17.53,-7.17,-113.09,-0.18,-0.24,-0.55,0.13,0.31,0.97,1000
16:08:51.099,17.53,-7.17,-113.09,-0.24,-0.24,-0.49,0.13,0.31,0.97,1000
16:08:51.101,17.53,-7.17,-113.09,-0.24,-0.43,-0.37,0.13,0.31,0.97,1000
16:08:51.104,17.53,-7.17,-113.09,-0.24,-0.43,-0.37,0.13,0.31,0.97,1000
16:08:51.105,17.53,-7.17,-113.09,-0.18,-0.3,-0.61,0.13,0.31,0.97,1000
16:08:51.107,17.53,-7.17,-113.09,-0.18,-0.3,-0.37,0.13,0.31,0.97,1000
16:08:51.109,17.53,-7.17,-113.09,-0.24,-0.37,-0.3,0.12,0.31,0.97,1000
16:08:51.111,17.53,-7.17,-113.09,-0.24,-0.12,-0.3,0.12,0.31,0.98,1000
16:08:51.114,17.53,-7.17,-113.09,-0.24,-0.12,-0.43,0.13,0.31,0.97,1000
16:08:51.116,17.53,-7.17,-113.09,-0.24,-0.18,-0.3,0.13,0.31,0.97,1000
16:08:51.119,17.53,-7.17,-113.1,-0.24,-0.3,-0.43,0.13,0.31,0.97,1000
16:08:51.120,17.53,-7.17,-113.1,-0.24,-0.24,-0.43,0.13,0.31,0.97,1000
16:08:51.125,17.53,-7.17,-113.1,-0.18,-0.3,-0.55,0.13,0.31,0.97,1000
16:08:51.125,17.53,-7.17,-113.1,-0.18,-0.12,-0.49,0.13,0.31,0.97,1000
16:08:51.126,17.53,-7.17,-113.1,-0.18,-0.24,-0.55,0.13,0.31,0.97,1000
16:08:51.127,17.53,-7.17,-113.1,-0.18,-0.18,-0.55,0.13,0.31,0.98,1000
16:08:51.129,17.53,-7.17,-113.1,-0.3,-0.12,-0.49,0.13,0.31,0.97,1000
16:08:51.132,17.53,-7.17,-113.1,-0.12,-0.18,-0.55,0.13,0.31,0.97,1000
16:08:51.134,17.53,-7.17,-113.1,-0.12,-0.18,-0.37,0.13,0.31,0.97,1000
16:08:51.135,17.53,-7.17,-113.1,-0.18,-0.24,-0.49,0.13,0.31,0.97,1000
16:08:51.139,17.53,-7.17,-113.1,-0.24,-0.37,-0.3,0.12,0.31,0.97,1000
16:08:51.139,17.53,-7.17,-113.1,-0.18,-0.3,-0.49,0.13,0.31,0.97,1000
16:08:51.143,17.53,-7.17,-113.1,-0.24,-0.24,-0.61,0.13,0.31,0.97,1000
16:08:51.143,17.53,-7.16,-113.1,-0.18,-0.18,-0.49,0.13,0.31,0.97,1000
16:08:51.161,17.53,-7.16,-113.11,-0.12,-0.3,-0.37,0.13,0.31,0.98,1000
16:08:51.161,17.53,-7.16,-113.11,-0.3,-0.24,-0.43,0.13,0.31,0.97,1000
16:08:51.161,17.53,-7.16,-113.11,-0.18,-0.12,-0.49,0.13,0.31,0.97,1000
16:08:51.161,17.53,-7.16,-113.11,-0.18,-0.18,-0.49,0.13,0.31,0.97,1000
16:08:51.161,17.53,-7.16,-113.11,-0.18,-0.18,-0.43,0.13,0.31,0.97,1000
16:08:51.161,17.53,-7.16,-113.11,-0.3,-0.18,-0.49,0.13,0.31,0.98,1000
16:08:51.161,17.53,-7.16,-113.11,-0.3,-0.37,-0.49,0.13,0.31,0.97,1000
16:08:51.161,17.53,-7.16,-113.11,-0.37,-0.43,-0.43,0.12,0.31,0.98,1000
16:08:51.162,17.53,-7.16,-113.11,-0.18,-0.37,-0.43,0.13,0.31,0.97,1000
16:08:51.163,17.53,-7.16,-113.11,-0.24,-0.3,-0.55,0.13,0.31,0.97,1000
16:08:51.167,17.53,-7.16,-113.11,-0.24,-0.24,-0.3,0.13,0.31,0.97,1000
16:08:51.168,17.53,-7.16,-113.11,-0.3,-0.3,-0.37,0.13,0.31,0.97,1000
16:08:51.169,17.53,-7.16,-113.11,-0.18,-0.18,-0.37,0.13,0.31,0.97,1000
16:08:51.171,17.53,-7.16,-113.11,-0.24,-0.12,-0.3,0.13,0.31,0.97,1000
16:08:51.174,17.53,-7.16,-113.11,-0.3,-0.18,-0.55,0.12,0.31,0.97,1000
16:08:51.176,17.53,-7.16,-113.11,-0.18,-0.24,-0.43,0.13,0.31,0.97,1000
16:08:51.177,17.53,-7.16,-113.12,-0.24,-0.24,-0.37,0.13,0.31,0.98,1000
16:08:51.179,17.53,-7.16,-113.12,-0.18,-0.06,-0.3,0.13,0.31,0.97,1000
16:08:51.181,17.53,-7.16,-113.12,-0.18,-0.18,-0.37,0.13,0.31,0.97,1000
16:08:51.183,17.53,-7.16,-113.12,-0.12,-0.24,-0.37,0.12,0.31,0.97,1000
16:08:51.187,17.53,-7.16,-113.12,-0.18,-0.06,-0.43,0.13,0.31,0.97,1000
16:08:51.188,17.53,-7.16,-113.12,-0.3,-0.24,-0.49,0.12,0.31,0.97,1000
16:08:51.190,17.53,-7.16,-113.12,-0.3,-0.3,-0.55,0.13,0.31,0.97,1000
16:08:51.192,17.53,-7.16,-113.12,-0.18,-0.24,-0.43,0.13,0.31,0.97,1000
16:08:51.193,17.53,-7.16,-113.12,-0.24,-0.18,-0.37,0.13,0.31,0.97,1000
16:08:51.196,17.53,-7.16,-113.12,-0.06,-0.24,-0.37,0.13,0.31,0.97,1000
16:08:51.199,17.53,-7.16,-113.12,-0.18,-0.24,-0.37,0.13,0.31,0.97,1000
16:08:51.199,17.53,-7.16,-113.12,-0.3,-0.3,-0.43,0.13,0.31,0.97,1000
16:08:51.201,17.53,-7.16,-113.12,-0.18,-0.24,-0.3,0.13,0.31,0.97,1000
16:08:51.204,17.53,-7.16,-113.12,-0.24,-0.24,-0.55,0.13,0.31,0.97,1000
16:08:51.205,17.53,-7.16,-113.12,-0.18,-0.24,-0.3,0.13,0.31,0.98,1000
16:08:51.208,17.53,-7.16,-113.12,-0.37,-0.18,-0.3,0.13,0.31,0.98,1000
16:08:51.209,17.53,-7.16,-113.12,-0.37,-0.37,-0.37,0.13,0.31,0.97,1000
16:08:51.211,17.53,-7.16,-113.13,-0.18,-0.18,-0.55,0.13,0.31,0.98,1000
16:08:51.213,17.53,-7.16,-113.13,-0.18,-0.3,-0.61,0.13,0.31,0.97,1000
16:08:51.218,17.53,-7.16,-113.13,-0.3,-0.3,-0.18,0.12,0.31,0.97,1000
16:08:51.218,17.53,-7.16,-113.13,-0.18,-0.3,-0.49,0.13,0.31,0.97,1000
16:08:51.220,17.53,-7.16,-113.13,-0.18,-0.06,-0.37,0.13,0.31,0.98,1000
16:08:51.222,17.53,-7.16,-113.13,-0.18,-0.37,-0.43,0.13,0.31,0.97,1000
16:08:51.224,17.53,-7.16,-113.13,-0.18,-0.24,-0.3,0.13,0.31,0.97,1000
16:08:51.226,17.53,-7.16,-113.13,-0.3,-0.3,-0.61,0.13,0.31,0.97,1000
16:08:51.227,17.53,-7.16,-113.13,-0.18,-0.18,-0.49,0.12,0.31,0.97,1000
16:08:51.229,17.53,-7.16,-113.13,-0.18,-0.18,-0.43,0.13,0.31,0.97,1000
16:08:51.231,17.53,-7.16,-113.13,-0.24,-0.43,-0.55,0.13,0.31,0.97,1000
16:08:51.233,17.53,-7.16,-113.13,-0.18,-0.18,-0.37,0.13,0.31,0.97,1000
16:08:51.236,17.53,-7.16,-113.13,-0.18,-0.24,-0.43,0.13,0.31,0.97,1000
16:08:51.237,17.53,-7.16,-113.13,-0.24,-0.37,-0.49,0.12,0.31,0.97,1000
16:08:51.239,17.53,-7.16,-113.13,-0.18,-0.3,-0.37,0.13,0.31,0.97,1000
16:08:51.242,17.53,-7.16,-113.13,-0.3,-0.24,-0.43,0.13,0.31,0.97,1000
16:08:51.244,17.53,-7.16,-113.14,-0.18,-0.24,-0.3,0.13,0.31,0.97,1000
16:08:51.250,17.53,-7.16,-113.14,-0.12,-0.3,-0.49,0.13,0.31,0.97,1000
16:08:51.251,17.53,-7.16,-113.14,-0.18,-0.24,-0.43,0.13,0.31,0.97,1000
16:08:51.251,17.53,-7.16,-113.14,-0.18,-0.3,-0.49,0.13,0.31,0.97,1000
16:08:51.252,17.53,-7.16,-113.14,-0.24,-0.3,-0.43,0.13,0.31,0.97,1000
16:08:51.261,17.53,-7.16,-113.14,-0.24,-0.18,-0.37,0.13,0.31,0.97,1000
16:08:51.262,17.53,-7.16,-113.14,-0.12,-0.12,-0.37,0.13,0.31,0.97,1000
16:08:51.262,17.53,-7.16,-113.14,-0.12,-0.3,-0.49,0.13,0.31,0.97,1000
16:08:51.262,17.53,-7.16,-113.14,-0.24,-0.24,-0.61,0.13,0.31,0.97,1000
16:08:51.262,17.53,-7.16,-113.14,-0.24,-0.18,-0.49,0.13,0.31,0.98,1000
16:08:51.263,17.53,-7.16,-113.14,-0.18,-0.12,-0.37,0.13,0.31,0.97,1000
16:08:51.265,17.53,-7.16,-113.14,-0.18,-0.24,-0.43,0.13,0.31,0.97,1000
16:08:51.268,17.53,-7.16,-113.14,-0.18,-0.3,-0.43,0.13,0.31,0.97,1000
16:08:51.270,17.53,-7.16,-113.14,-0.24,-0.3,-0.3,0.13,0.31,0.97,1000
16:08:51.271,17.53,-7.16,-113.14,-0.18,-0.18,-0.43,0.13,0.31,0.97,1000
16:08:51.273,17.53,-7.16,-113.14,-0.12,-0.43,-0.43,0.13,0.31,0.97,1000
16:08:51.275,17.53,-7.16,-113.14,-0.18,-0.18,-0.37,0.13,0.31,0.97,1000
16:08:51.277,17.53,-7.16,-113.15,-0.18,-0.3,-0.3,0.13,0.31,0.97,1000
16:08:51.279,17.53,-7.16,-113.15,-0.18,-0.06,-0.24,0.13,0.31,0.97,1000
16:08:51.281,17.53,-7.16,-113.15,-0.18,-0.24,-0.37,0.12,0.31,0.97,1000
16:08:51.283,17.53,-7.16,-113.15,-0.18,-0.18,-0.43,0.13,0.31,0.97,1000
16:08:51.285,17.53,-7.16,-113.15,-0.24,-0.37,-0.43,0.13,0.31,0.97,1000
16:08:51.287,17.53,-7.16,-113.15,-0.24,-0.24,-0.3,0.13,0.31,0.97,1000
16:08:51.289,17.53,-7.16,-113.15,-0.18,-0.06,-0.3,0.13,0.31,0.97,1000
16:08:51.291,17.53,-7.16,-113.15,-0.24,-0.37,-0.3,0.13,0.31,0.97,1000
16:08:51.293,17.53,-7.16,-113.15,-0.06,-0.37,-0.49,0.13,0.31,0.97,1000
16:08:51.295,17.53,-7.16,-113.15,-0.18,-0.3,-0.43,0.13,0.31,0.97,1000
16:08:51.297,17.53,-7.16,-113.15,-0.18,-0.18,-0.37,0.13,0.31,0.97,1000
16:08:51.301,17.53,-7.16,-113.15,-0.3,-0.24,-0.3,0.13,0.31,0.97,1000
16:08:51.301,17.53,-7.16,-113.15,-0.18,-0.43,-0.49,0.13,0.31,0.97,1000
16:08:51.304,17.53,-7.16,-113.15,-0.18,-0.18,-0.37,0.13,0.31,0.97,1000
16:08:51.306,17.53,-7.16,-113.15,-0.18,-0.12,-0.3,0.13,0.31,0.97,1000
16:08:51.307,17.53,-7.16,-113.15,-0.24,-0.24,-0.55,0.13,0.31,0.97,1000
16:08:51.310,17.53,-7.16,-113.15,-0.37,-0.3,-0.37,0.13,0.31,0.97,1000
16:08:51.315,17.53,-7.16,-113.15,-0.24,-0.3,-0.37,0.13,0.31,0.97,1000
16:08:51.315,17.53,-7.16,-113.16,-0.18,-0.3,-0.49,0.13,0.31,0.97,1000
16:08:51.316,17.53,-7.16,-113.16,-0.18,-0.37,-0.43,0.13,0.31,0.97,1000
16:08:51.320,17.53,-7.16,-113.16,-0.24,-0.3,-0.55,0.13,0.31,0.97,1000
16:08:51.321,17.53,-7.16,-113.16,-0.24,-0.43,-0.55,0.13,0.31,0.97,1000
16:08:51.322,17.53,-7.16,-113.16,-0.18,-0.3,-0.3,0.13,0.31,0.97,1000
16:08:51.323,17.53,-7.16,-113.16,-0.12,-0.24,-0.49,0.13,0.31,0.97,1000
16:08:51.326,17.53,-7.16,-113.16,-0.24,-0.3,-0.55,0.13,0.31,0.97,1000
16:08:51.329,17.53,-7.16,-113.16,-0.18,-0.12,-0.3,0.13,0.31,0.97,1000
16:08:51.329,17.53,-7.16,-113.16,-0.3,-0.18,-0.43,0.13,0.31,0.97,1000
16:08:51.331,17.53,-7.16,-113.16,-0.3,-0.06,-0.49,0.13,0.31,0.97,1000
16:08:51.333,17.53,-7.16,-113.16,-0.06,-0.37,-0.3,0.13,0.31,0.97,1000
16:08:51.338,17.53,-7.16,-113.16,-0.18,-0.24,-0.49,0.13,0.31,0.97,1000
16:08:51.339,17.53,-7.16,-113.16,-0.12,-0.3,-0.37,0.13,0.31,0.97,1000
16:08:51.340,17.53,-7.16,-113.16,-0.18,-0.43,-0.49,0.13,0.31,0.97,1000
16:08:51.343,17.53,-7.16,-113.16,-0.18,-0.43,-0.43,0.13,0.31,0.97,1000
16:08:51.344,17.53,-7.17,-113.17,-0.3,-0.3,-0.49,0.13,0.31,0.97,1000
16:08:51.345,17.53,-7.17,-113.17,-0.18,-0.3,-0.55,0.13,0.31,0.97,1000
16:08:51.347,17.53,-7.17,-113.17,-0.24,-0.18,-0.55,0.13,0.31,0.97,1000
16:08:51.355,17.53,-7.17,-113.17,0.0,-0.24,-0.37,0.12,0.31,0.98,1000
16:08:51.362,17.53,-7.17,-113.17,-0.06,-0.24,-0.3,0.13,0.31,0.97,1000
16:08:51.362,17.53,-7.17,-113.17,-0.18,-0.37,-0.37,0.13,0.31,0.97,1000
16:08:51.362,17.53,-7.17,-113.17,-0.24,-0.18,-0.49,0.13,0.31,0.97,1000
16:08:51.362,17.53,-7.17,-113.17,-0.18,-0.24,-0.43,0.13,0.31,0.97,1000
16:08:51.362,17.53,-7.17,-113.17,-0.12,-0.43,-0.55,0.12,0.31,0.97,1000
16:08:51.362,17.53,-7.17,-113.17,-0.12,-0.3,-0.49,0.13,0.31,0.97,1000
16:08:51.363,17.53,-7.17,-113.17,-0.06,-0.12,-0.61,0.13,0.31,0.97,1000
16:08:51.366,17.53,-7.17,-113.17,-0.3,-0.18,-0.61,0.13,0.31,0.97,1000
16:08:51.368,17.52,-7.17,-113.17,-0.18,-0.18,-0.55,0.13,0.31,0.97,1000
16:08:51.375,17.52,-7.17,-113.17,-0.37,-0.3,-0.61,0.13,0.31,0.97,1000
16:08:51.375,17.52,-7.17,-113.17,-0.24,-0.24,-0.3,0.13,0.31,0.97,1000
16:08:51.375,17.52,-7.17,-113.18,-0.18,-0.3,-0.43,0.13,0.31,0.97,1000
16:08:51.378,17.52,-7.17,-113.18,-0.18,-0.18,-0.3,0.13,0.31,0.97,1000
16:08:51.378,17.53,-7.17,-113.18,-0.18,-0.06,-0.37,0.13,0.31,0.97,1000
16:08:51.379,17.53,-7.17,-113.18,-0.12,-0.3,-0.3,0.13,0.31,0.97,1000
16:08:51.381,17.53,-7.17,-113.18,-0.18,-0.18,-0.43,0.13,0.31,0.97,1000
16:08:51.384,17.53,-7.17,-113.18,-0.18,-0.24,-0.37,0.13,0.31,0.97,1000
16:08:51.385,17.53,-7.17,-113.18,-0.24,-0.3,-0.43,0.13,0.31,0.97,1000
16:08:51.389,17.53,-7.17,-113.18,-0.37,-0.3,-0.43,0.13,0.31,0.97,1000
16:08:51.392,17.52,-7.17,-113.18,-0.24,-0.24,-0.49,0.12,0.31,0.97,1000
16:08:51.396,17.53,-7.17,-113.18,-0.24,-0.24,-0.37,0.13,0.31,0.97,1000
16:08:51.396,17.52,-7.17,-113.18,-0.3,-0.3,-0.37,0.13,0.31,0.97,1000
16:08:51.396,17.53,-7.17,-113.18,-0.24,-0.3,-0.3,0.13,0.31,0.97,1000
16:08:51.398,17.53,-7.17,-113.18,-0.3,-0.18,-0.37,0.13,0.31,0.97,1000
16:08:51.399,17.53,-7.17,-113.18,-0.3,-0.37,-0.43,0.13,0.31,0.97,1000
16:08:51.401,17.53,-7.17,-113.18,-0.24,-0.43,-0.49,0.13,0.31,0.97,1000
16:08:51.403,17.52,-7.17,-113.18,-0.3,-0.43,-0.49,0.13,0.31,0.97,1000
16:08:51.405,17.53,-7.17,-113.18,-0.24,-0.24,-0.49,0.13,0.31,0.97,1000
16:08:51.407,17.52,-7.17,-113.19,-0.3,-0.24,-0.55,0.13,0.31,0.97,1000
16:08:51.410,17.52,-7.17,-113.19,-0.18,-0.12,-0.37,0.13,0.31,0.97,1000
16:08:51.411,17.52,-7.17,-113.19,-0.24,-0.12,-0.37,0.13,0.31,0.97,1000
16:08:51.415,17.53,-7.17,-113.19,-0.24,-0.06,-0.3,0.13,0.31,0.97,1000
16:08:51.416,17.52,-7.17,-113.19,-0.24,-0.3,-0.49,0.13,0.31,0.97,1000
16:08:51.417,17.52,-7.17,-113.19,-0.18,-0.3,-0.55,0.13,0.31,0.97,1000
16:08:51.419,17.52,-7.17,-113.19,-0.24,-0.3,-0.37,0.13,0.31,0.97,1000
16:08:51.422,17.52,-7.17,-113.19,-0.3,-0.3,-0.3,0.13,0.31,0.97,1000
16:08:51.424,17.52,-7.17,-113.19,-0.3,-0.12,-0.55,0.13,0.31,0.97,1000
16:08:51.425,17.52,-7.17,-113.19,-0.24,-0.3,-0.37,0.13,0.31,0.98,1000
16:08:51.428,17.52,-7.17,-113.19,-0.18,-0.24,-0.43,0.12,0.31,0.97,1000
16:08:51.429,17.52,-7.17,-113.19,-0.18,-0.24,-0.43,0.13,0.31,0.97,1000
16:08:51.431,17.52,-7.17,-113.19,-0.06,-0.3,-0.43,0.13,0.31,0.97,1000
16:08:51.434,17.52,-7.17,-113.19,-0.24,-0.3,-0.49,0.13,0.31,0.97,1000
16:08:51.435,17.52,-7.17,-113.19,-0.18,-0.3,-0.49,0.13,0.31,0.97,1000
16:08:51.439,17.52,-7.17,-113.19,-0.18,-0.24,-0.43,0.13,0.31,0.97,1000
16:08:51.440,17.52,-7.17,-113.19,-0.18,-0.3,-0.3,0.13,0.31,0.98,1000
16:08:51.441,17.52,-7.17,-113.2,-0.24,-0.24,-0.49,0.13,0.31,0.97,1000
16:08:51.443,17.52,-7.17,-113.2,-0.18,-0.24,-0.43,0.13,0.31,0.97,1000
16:08:51.445,17.52,-7.17,-113.2,-0.12,-0.12,-0.61,0.13,0.31,0.97,1000
16:08:51.448,17.52,-7.17,-113.2,-0.3,-0.18,-0.43,0.13,0.31,0.97,1000
16:08:51.449,17.52,-7.17,-113.2,-0.24,-0.3,-0.55,0.13,0.31,0.97,1000
16:08:51.456,17.52,-7.17,-113.2,-0.3,-0.24,-0.37,0.13,0.31,0.97,1000
16:08:51.457,17.52,-7.17,-113.2,-0.18,-0.18,-0.37,0.13,0.31,0.97,1000
16:08:51.457,17.52,-7.17,-113.2,-0.18,-0.18,-0.49,0.13,0.31,0.97,1000
16:08:51.466,17.52,-7.17,-113.2,-0.3,-0.06,-0.43,0.13,0.31,0.97,1000
16:08:51.467,17.52,-7.17,-113.2,-0.37,-0.24,-0.3,0.13,0.31,0.97,1000
16:08:51.467,17.52,-7.17,-113.2,-0.18,-0.3,-0.3,0.13,0.31,0.97,1000
16:08:51.467,17.52,-7.17,-113.2,-0.18,-0.12,-0.3,0.13,0.31,0.97,1000
16:08:51.467,17.52,-7.17,-113.2,-0.3,-0.24,-0.43,0.13,0.31,0.97,1000
16:08:51.469,17.52,-7.17,-113.2,-0.49,-0.3,-0.43,0.13,0.31,0.97,1000
16:08:51.469,17.52,-7.17,-113.2,-0.24,-0.24,-0.43,0.13,0.31,0.97,1000
16:08:51.473,17.52,-7.17,-113.2,-0.18,-0.24,-0.3,0.13,0.31,0.97,1000
16:08:51.474,17.52,-7.17,-113.2,-0.18,-0.24,-0.37,0.12,0.31,0.97,1000
16:08:51.475,17.52,-7.17,-113.21,-0.3,-0.3,-0.37,0.13,0.31,0.97,1000
16:08:51.477,17.52,-7.17,-113.21,-0.18,-0.3,-0.37,0.13,0.31,0.97,1000
16:08:51.479,17.52,-7.17,-113.21,-0.24,0.06,-0.49,0.13,0.31,0.97,1000
16:08:51.481,17.52,-7.17,-113.21,-0.18,-0.3,-0.49,0.12,0.31,0.97,1000
16:08:51.483,17.52,-7.17,-113.21,-0.24,-0.43,-0.43,0.13,0.31,0.97,1000
16:08:51.485,17.52,-7.17,-113.21,-0.24,-0.3,-0.37,0.12,0.31,0.97,1000
16:08:51.487,17.52,-7.17,-113.21,-0.3,-0.24,-0.37,0.13,0.31,0.97,1000
16:08:51.490,17.52,-7.17,-113.21,-0.18,-0.18,-0.49,0.12,0.31,0.97,1000
16:08:51.492,17.52,-7.17,-113.21,-0.18,-0.18,-0.43,0.13,0.31,0.97,1000
16:08:51.495,17.52,-7.17,-113.21,-0.18,-0.37,-0.3,0.12,0.31,0.97,1000
16:08:51.495,17.52,-7.17,-113.21,-0.24,-0.3,-0.3,0.13,0.31,0.97,1000
16:08:51.498,17.52,-7.17,-113.21,-0.24,-0.3,-0.24,0.13,0.31,0.97,1000
16:08:51.500,17.52,-7.17,-113.21,-0.37,-0.24,-0.43,0.13,0.31,0.97,1000
16:08:51.501,17.52,-7.17,-113.21,-0.37,-0.12,-0.61,0.13,0.31,0.97,1000
16:08:51.503,17.52,-7.17,-113.21,-0.24,-0.3,-0.55,0.13,0.31,0.97,1000
16:08:51.506,17.52,-7.17,-113.21,-0.3,-0.37,-0.49,0.13,0.31,0.97,1000
16:08:51.510,17.52,-7.17,-113.21,-0.18,-0.3,-0.3,0.13,0.31,0.97,1000
16:08:51.510,17.52,-7.17,-113.22,-0.12,-0.37,-0.49,0.13,0.31,0.97,1000
16:08:51.511,17.52,-7.17,-113.22,-0.18,-0.3,-0.55,0.13,0.31,0.97,1000
16:08:51.513,17.52,-7.17,-113.22,-0.18,-0.18,-0.73,0.13,0.31,0.97,1000
16:08:51.517,17.52,-7.17,-113.22,-0.18,-0.06,-0.61,0.13,0.31,0.97,1000
16:08:51.518,17.52,-7.17,-113.22,-0.18,-0.24,-0.49,0.13,0.31,0.97,1000
16:08:51.519,17.52,-7.17,-113.22,-0.24,-0.06,-0.55,0.13,0.31,0.97,1000
16:08:51.521,17.52,-7.17,-113.22,-0.37,-0.24,-0.37,0.13,0.31,0.97,1000
16:08:51.525,17.52,-7.17,-113.22,-0.3,-0.24,-0.43,0.13,0.31,0.97,1000
16:08:51.526,17.52,-7.17,-113.22,-0.3,-0.3,-0.3,0.13,0.31,0.97,1000
16:08:51.527,17.52,-7.17,-113.22,-0.3,-0.24,-0.3,0.13,0.31,0.97,1000
16:08:51.529,17.52,-7.17,-113.22,-0.24,-0.18,-0.55,0.13,0.31,0.97,1000
16:08:51.533,17.52,-7.17,-113.22,-0.3,-0.3,-0.67,0.13,0.31,0.97,1000
16:08:51.533,17.52,-7.17,-113.22,-0.18,-0.43,-0.43,0.13,0.31,0.97,1000
16:08:51.535,17.52,-7.17,-113.22,-0.18,-0.18,-0.43,0.13,0.31,0.97,1000
16:08:51.537,17.52,-7.17,-113.22,-0.18,-0.18,-0.3,0.13,0.31,0.97,1000
16:08:51.539,17.52,-7.17,-113.22,-0.18,-0.12,-0.43,0.13,0.31,0.97,1000
16:08:51.542,17.52,-7.17,-113.23,-0.12,-0.3,-0.49,0.13,0.31,0.97,1000
16:08:51.543,17.52,-7.17,-113.23,-0.3,-0.24,-0.49,0.13,0.31,0.98,1000
16:08:51.545,17.52,-7.17,-113.23,-0.3,-0.18,-0.49,0.13,0.31,0.97,1000
16:08:51.549,17.52,-7.17,-113.23,-0.12,-0.18,-0.3,0.13,0.31,0.97,1000
16:08:51.550,17.52,-7.17,-113.23,-0.18,-0.24,-0.43,0.13,0.31,0.97,1000
16:08:51.552,17.52,-7.17,-113.23,-0.12,-0.24,-0.43,0.13,0.31,0.97,1000
16:08:51.556,17.52,-7.17,-113.23,-0.12,-0.18,-0.3,0.13,0.31,0.97,1000
16:08:51.557,17.52,-7.17,-113.23,-0.18,-0.12,-0.3,0.13,0.31,0.97,1000
16:08:51.558,17.52,-7.17,-113.23,-0.3,-0.12,-0.3,0.13,0.31,0.97,1000
16:08:51.560,17.52,-7.17,-113.23,-0.18,-0.06,-0.61,0.13,0.31,0.97,1000
16:08:51.571,17.52,-7.17,-113.23,-0.3,-0.12,-0.55,0.13,0.31,0.97,1000
16:08:51.572,17.52,-7.17,-113.23,-0.24,-0.3,-0.55,0.13,0.31,0.97,1000
16:08:51.572,17.52,-7.17,-113.23,-0.18,-0.18,-0.43,0.13,0.31,0.97,1000
16:08:51.572,17.52,-7.17,-113.23,-0.24,-0.18,-0.43,0.13,0.31,0.97,1000
16:08:51.572,17.52,-7.17,-113.23,-0.12,-0.37,-0.3,0.13,0.31,0.97,1000
16:08:51.572,17.52,-7.17,-113.23,-0.12,-0.12,-0.43,0.13,0.31,0.97,1000
16:08:51.574,17.52,-7.17,-113.23,-0.06,-0.24,-0.43,0.13,0.31,0.97,1000
16:08:51.575,17.52,-7.17,-113.24,-0.24,-0.18,-0.49,0.13,0.31,0.97,1000
16:08:51.577,17.52,-7.17,-113.24,-0.18,-0.24,-0.37,0.13,0.31,0.97,1000
16:08:51.581,17.52,-7.17,-113.24,-0.3,-0.18,-0.55,0.13,0.31,0.97,1000
16:08:51.581,17.52,-7.17,-113.24,-0.12,-0.06,-0.61,0.13,0.31,0.97,1000
16:08:51.583,17.52,-7.17,-113.24,-0.3,-0.18,-0.55,0.13,0.31,0.97,1000
16:08:51.585,17.52,-7.17,-113.24,-0.18,-0.18,-0.49,0.13,0.31,0.97,1000
16:08:51.587,17.52,-7.17,-113.24,-0.12,-0.37,-0.43,0.13,0.31,0.97,1000
16:08:51.589,17.52,-7.17,-113.24,-0.18,-0.3,-0.49,0.13,0.31,0.97,1000
16:08:51.592,17.52,-7.17,-113.24,-0.24,-0.24,-0.43,0.13,0.31,0.97,1000
16:08:51.593,17.52,-7.17,-113.24,-0.24,-0.24,-0.49,0.13,0.31,0.97,1000
16:08:51.595,17.52,-7.17,-113.24,-0.3,-0.37,-0.49,0.13,0.31,0.97,1000
16:08:51.597,17.52,-7.17,-113.24,-0.37,-0.24,-0.55,0.13,0.31,0.97,1000
16:08:51.601,17.52,-7.17,-113.24,-0.18,-0.24,-0.43,0.13,0.31,0.97,1000
16:08:51.602,17.52,-7.17,-113.24,-0.18,-0.18,-0.43,0.13,0.31,0.97,1000
16:08:51.604,17.52,-7.17,-113.24,-0.18,-0.18,-0.49,0.13,0.31,0.97,1000
16:08:51.606,17.52,-7.17,-113.24,-0.18,-0.37,-0.49,0.13,0.31,0.97,1000
16:08:51.609,17.52,-7.17,-113.25,-0.18,-0.18,-0.49,0.13,0.31,0.97,1000
16:08:51.609,17.52,-7.17,-113.25,-0.18,-0.12,-0.3,0.13,0.31,0.97,1000
16:08:51.611,17.52,-7.17,-113.25,-0.24,-0.18,-0.43,0.13,0.31,0.97,1000
16:08:51.613,17.52,-7.17,-113.25,-0.3,-0.12,-0.61,0.13,0.31,0.97,1000
16:08:51.617,17.52,-7.17,-113.25,-0.18,-0.3,-0.55,0.13,0.31,0.97,1000
16:08:51.619,17.52,-7.17,-113.25,-0.24,-0.06,-0.49,0.13,0.31,0.97,1000
16:08:51.619,17.52,-7.17,-113.25,-0.18,-0.3,-0.37,0.13,0.31,0.97,1000
16:08:51.621,17.52,-7.17,-113.25,-0.3,-0.24,-0.49,0.13,0.31,0.97,1000
16:08:51.624,17.52,-7.17,-113.25,-0.24,-0.12,-0.37,0.13,0.31,0.97,1000
16:08:51.627,17.52,-7.17,-113.25,-0.24,-0.3,-0.49,0.13,0.31,0.97,1000
16:08:51.628,17.52,-7.17,-113.25,-0.24,-0.12,-0.61,0.13,0.31,0.97,1000
16:08:51.629,17.52,-7.17,-113.25,-0.24,-0.18,-0.37,0.13,0.31,0.97,1000
16:08:51.632,17.52,-7.17,-113.25,-0.18,-0.37,-0.3,0.13,0.31,0.97,1000
16:08:51.635,17.52,-7.17,-113.25,-0.18,-0.3,-0.43,0.13,0.31,0.97,1000
16:08:51.636,17.52,-7.17,-113.25,-0.18,-0.12,-0.43,0.13,0.31,0.97,1000
16:08:51.637,17.52,-7.17,-113.26,-0.3,-0.18,-0.43,0.13,0.31,0.97,1000
16:08:51.639,17.52,-7.17,-113.26,-0.06,-0.18,-0.3,0.13,0.31,0.97,1000
16:08:51.641,17.53,-7.17,-113.26,-0.18,-0.24,-0.49,0.13,0.31,0.97,1000
16:08:51.644,17.53,-7.17,-113.26,-0.18,-0.18,-0.37,0.13,0.31,0.97,1000
16:08:51.645,17.53,-7.17,-113.26,-0.24,-0.3,-0.43,0.13,0.31,0.97,1000
16:08:51.647,17.53,-7.17,-113.26,-0.3,-0.3,-0.43,0.13,0.31,0.97,1000
16:08:51.650,17.53,-7.17,-113.26,-0.18,-0.12,-0.43,0.13,0.31,0.97,1000
16:08:51.651,17.53,-7.17,-113.26,-0.24,-0.43,-0.43,0.13,0.31,0.97,1000
16:08:51.654,17.53,-7.17,-113.26,-0.3,-0.18,-0.67,0.13,0.31,0.97,1000
16:08:51.655,17.53,-7.17,-113.26,-0.18,-0.3,-0.43,0.12,0.31,0.97,1000
16:08:51.659,17.53,-7.17,-113.26,-0.24,-0.24,-0.49,0.13,0.31,0.97,1000
16:08:51.661,17.53,-7.17,-113.26,-0.18,-0.06,-0.73,0.13,0.31,0.97,1000
16:08:51.662,17.53,-7.17,-113.26,-0.18,-0.12,-0.43,0.13,0.31,0.97,1000
16:08:51.674,17.53,-7.17,-113.26,-0.24,-0.24,-0.43,0.13,0.31,0.97,1000
16:08:51.675,17.53,-7.17,-113.26,-0.3,-0.12,-0.43,0.13,0.31,0.97,1000
16:08:51.675,17.53,-7.17,-113.27,-0.18,-0.18,-0.49,0.13,0.31,0.97,1000
16:08:51.675,17.53,-7.17,-113.27,-0.24,-0.24,-0.37,0.13,0.31,0.97,1000
16:08:51.675,17.53,-7.17,-113.27,-0.18,-0.3,-0.49,0.13,0.31,0.97,1000
16:08:51.675,17.53,-7.17,-113.27,-0.12,-0.24,-0.43,0.13,0.31,0.97,1000
16:08:51.676,17.53,-7.17,-113.27,-0.24,-0.12,-0.43,0.13,0.31,0.97,1000
16:08:51.679,17.53,-7.17,-113.27,-0.3,-0.12,-0.55,0.13,0.31,0.97,1000
16:08:51.680,17.53,-7.17,-113.27,-0.12,-0.24,-0.55,0.13,0.31,0.97,1000
16:08:51.682,17.53,-7.17,-113.27,-0.18,-0.24,-0.49,0.13,0.31,0.97,1000
16:08:51.684,17.53,-7.17,-113.27,-0.18,-0.12,-0.49,0.13,0.31,0.97,1000
16:08:51.685,17.53,-7.17,-113.27,-0.18,-0.3,-0.67,0.13,0.31,0.97,1000
16:08:51.687,17.53,-7.17,-113.27,-0.18,-0.3,-0.55,0.13,0.31,0.97,1000
16:08:51.689,17.53,-7.17,-113.27,-0.18,-0.12,-0.49,0.13,0.31,0.97,1000
16:08:51.692,17.53,-7.17,-113.27,-0.37,-0.24,-0.49,0.13,0.31,0.97,1000
16:08:51.693,17.53,-7.17,-113.27,-0.3,-0.18,-0.37,0.12,0.31,0.97,1000
16:08:51.695,17.53,-7.17,-113.27,-0.43,-0.12,-0.55,0.12,0.31,0.97,1000
16:08:51.697,17.53,-7.17,-113.28,-0.18,-0.18,-0.55,0.12,0.31,0.97,1000
16:08:51.702,17.53,-7.17,-113.28,-0.37,-0.18,-0.37,0.13,0.31,0.97,1000
16:08:51.703,17.53,-7.17,-113.28,-0.3,-0.37,-0.43,0.13,0.31,0.97,1000
16:08:51.704,17.53,-7.17,-113.28,-0.18,-0.24,-0.49,0.12,0.31,0.97,1000
16:08:51.705,17.53,-7.17,-113.28,-0.3,-0.3,-0.49,0.13,0.31,0.97,1000
16:08:51.707,17.53,-7.17,-113.28,-0.24,-0.18,-0.55,0.13,0.31,0.97,1000
16:08:51.709,17.53,-7.17,-113.28,-0.24,-0.37,-0.43,0.13,0.31,0.97,1000
16:08:51.711,17.53,-7.17,-113.28,-0.24,-0.3,-0.49,0.13,0.31,0.97,1000
16:08:51.713,17.53,-7.17,-113.28,-0.37,-0.3,-0.43,0.13,0.31,0.97,1000
16:08:51.715,17.53,-7.17,-113.28,-0.24,-0.3,-0.61,0.13,0.31,0.97,1000
16:08:51.717,17.53,-7.17,-113.28,-0.3,-0.3,-0.49,0.13,0.31,0.97,1000
16:08:51.719,17.53,-7.17,-113.28,-0.24,-0.18,-0.3,0.13,0.31,0.97,1000
16:08:51.721,17.53,-7.17,-113.28,-0.18,-0.24,-0.49,0.13,0.31,0.97,1000
16:08:51.723,17.53,-7.17,-113.28,-0.18,-0.24,-0.61,0.13,0.31,0.97,1000
16:08:51.725,17.53,-7.17,-113.28,-0.18,-0.18,-0.55,0.13,0.31,0.97,1000
16:08:51.730,17.53,-7.17,-113.29,-0.24,-0.43,-0.3,0.13,0.31,0.97,1000
16:08:51.730,17.53,-7.17,-113.29,0.0,-0.18,-0.43,0.13,0.31,0.97,1000
16:08:51.733,17.53,-7.17,-113.29,-0.18,-0.37,-0.49,0.13,0.31,0.98,1000
16:08:51.733,17.53,-7.17,-113.29,-0.24,-0.24,-0.61,0.13,0.31,0.97,1000
16:08:51.735,17.53,-7.17,-113.29,-0.18,-0.24,-0.37,0.13,0.31,0.97,1000
16:08:51.739,17.53,-7.17,-113.29,-0.18,-0.18,-0.43,0.13,0.31,0.97,1000
16:08:51.739,17.53,-7.17,-113.29,-0.18,-0.12,-0.49,0.13,0.31,0.97,1000
16:08:51.741,17.53,-7.17,-113.29,-0.24,-0.18,-0.61,0.13,0.31,0.97,1000
16:08:51.743,17.53,-7.17,-113.29,-0.18,-0.24,-0.43,0.13,0.31,0.97,1000
16:08:51.747,17.53,-7.17,-113.29,-0.3,-0.3,-0.55,0.13,0.31,0.97,1000
16:08:51.748,17.53,-7.17,-113.29,-0.24,-0.24,-0.37,0.13,0.31,0.97,1000
16:08:51.749,17.53,-7.17,-113.29,-0.3,-0.24,-0.37,0.13,0.31,0.97,1000
16:08:51.751,17.53,-7.17,-113.29,-0.24,-0.24,-0.61,0.13,0.31,0.97,1000
16:08:51.754,17.53,-7.17,-113.29,-0.18,-0.3,-0.43,0.13,0.31,0.97,1000
16:08:51.757,17.53,-7.17,-113.3,-0.18,-0.24,-0.55,0.13,0.31,0.97,1000
16:08:51.760,17.53,-7.17,-113.3,-0.24,-0.37,-0.49,0.13,0.31,0.97,1000
16:08:51.773,17.53,-7.17,-113.3,-0.18,-0.3,-0.49,0.13,0.31,0.97,1000
16:08:51.776,17.53,-7.17,-113.3,-0.18,-0.24,-0.3,0.13,0.31,0.97,1000
16:08:51.776,17.53,-7.17,-113.3,-0.12,-0.3,-0.55,0.13,0.31,0.97,1000
16:08:51.776,17.53,-7.17,-113.3,-0.24,-0.3,-0.73,0.12,0.31,0.97,1000
16:08:51.776,17.53,-7.17,-113.3,-0.18,-0.24,-0.61,0.12,0.31,0.97,1000
16:08:51.776,17.53,-7.17,-113.3,-0.18,-0.18,-0.43,0.13,0.31,0.97,1000
16:08:51.776,17.53,-7.17,-113.3,-0.18,-0.24,-0.49,0.13,0.31,0.97,1000
16:08:51.776,17.53,-7.17,-113.3,-0.24,-0.18,-0.43,0.13,0.31,0.97,1000
16:08:51.776,17.53,-7.17,-113.3,-0.3,-0.37,-0.3,0.13,0.31,0.97,1000
16:08:51.778,17.53,-7.17,-113.3,-0.18,-0.3,-0.37,0.13,0.31,0.97,1000
16:08:51.782,17.53,-7.17,-113.31,-0.18,-0.3,-0.37,0.12,0.31,0.97,1000
16:08:51.782,17.53,-7.17,-113.31,-0.24,-0.3,-0.37,0.13,0.31,0.97,1000
16:08:51.785,17.53,-7.17,-113.31,-0.18,-0.37,-0.55,0.13,0.31,0.97,1000
16:08:51.787,17.53,-7.17,-113.31,-0.18,-0.24,-0.24,0.13,0.31,0.97,1000
16:08:51.789,17.53,-7.17,-113.31,-0.3,-0.18,-0.37,0.13,0.31,0.97,1000
16:08:51.791,17.53,-7.17,-113.31,-0.24,-0.18,-0.49,0.12,0.31,0.97,1000
16:08:51.792,17.53,-7.17,-113.31,-0.24,-0.43,-0.3,0.13,0.31,0.97,1000
16:08:51.794,17.53,-7.17,-113.31,-0.18,-0.37,-0.43,0.13,0.31,0.97,1000
16:08:51.795,17.53,-7.17,-113.31,-0.3,-0.18,-0.49,0.12,0.31,0.97,1000
16:08:51.798,17.53,-7.17,-113.31,-0.18,0.0,-0.61,0.13,0.31,0.97,1000
16:08:51.802,17.53,-7.17,-113.31,-0.3,-0.24,-0.61,0.13,0.31,0.97,1000
16:08:51.802,17.53,-7.17,-113.31,-0.24,-0.06,-0.37,0.13,0.31,0.97,1000
16:08:51.804,17.53,-7.17,-113.32,-0.3,-0.18,-0.3,0.13,0.31,0.97,1000
16:08:51.806,17.53,-7.17,-113.32,-0.12,-0.24,-0.3,0.12,0.31,0.97,1000
16:08:51.807,17.53,-7.16,-113.32,-0.24,-0.3,-0.37,0.12,0.31,0.97,1000
16:08:51.809,17.53,-7.16,-113.32,-0.3,-0.24,-0.61,0.13,0.31,0.97,1000
16:08:51.813,17.53,-7.16,-113.32,-0.3,-0.24,-0.49,0.13,0.31,0.97,1000
16:08:51.814,17.53,-7.16,-113.32,-0.24,-0.18,-0.61,0.13,0.31,0.97,1000
16:08:51.816,17.53,-7.16,-113.32,-0.12,-0.12,-0.43,0.13,0.31,0.97,1000
16:08:51.818,17.53,-7.16,-113.32,-0.24,-0.3,-0.37,0.13,0.31,0.97,1000
16:08:51.819,17.53,-7.16,-113.32,-0.18,-0.06,-0.55,0.13,0.31,0.97,1000
16:08:51.822,17.53,-7.16,-113.32,-0.12,-0.12,-0.55,0.13,0.31,0.97,1000
16:08:51.824,17.53,-7.16,-113.32,-0.3,-0.18,-0.49,0.12,0.31,0.97,1000
16:08:51.826,17.53,-7.16,-113.32,-0.18,-0.24,-0.49,0.13,0.31,0.97,1000
16:08:51.827,17.53,-7.16,-113.32,-0.37,-0.12,-0.37,0.13,0.31,0.97,1000
16:08:51.832,17.53,-7.16,-113.32,-0.24,-0.24,-0.37,0.13,0.31,0.97,1000
16:08:51.834,17.53,-7.16,-113.32,-0.18,-0.24,-0.3,0.13,0.31,0.97,1000
16:08:51.834,17.53,-7.16,-113.32,-0.18,-0.18,-0.55,0.13,0.31,0.97,1000
16:08:51.836,17.53,-7.16,-113.33,-0.18,-0.12,-0.61,0.13,0.31,0.97,1000
16:08:51.842,17.53,-7.16,-113.33,-0.24,-0.3,-0.49,0.13,0.31,0.97,1000
16:08:51.842,17.53,-7.16,-113.33,-0.24,-0.06,-0.43,0.13,0.31,0.97,1000
16:08:51.842,17.53,-7.16,-113.33,-0.18,-0.24,-0.3,0.13,0.31,0.97,1000
16:08:51.843,17.53,-7.16,-113.33,-0.18,-0.18,-0.49,0.13,0.31,0.97,1000
16:08:51.845,17.53,-7.16,-113.33,-0.3,-0.12,-0.61,0.13,0.31,0.97,1000
16:08:51.849,17.53,-7.16,-113.33,-0.18,0.0,-0.55,0.13,0.31,0.97,1000
16:08:51.850,17.53,-7.16,-113.33,-0.06,-0.06,-0.55,0.13,0.31,0.97,1000
16:08:51.851,17.53,-7.16,-113.33,-0.18,-0.24,-0.37,0.13,0.31,0.97,1000
16:08:51.853,17.53,-7.16,-113.33,-0.18,-0.3,-0.43,0.13,0.31,0.97,1000
16:08:51.855,17.53,-7.16,-113.33,-0.18,-0.3,-0.43,0.13,0.31,0.97,1000
16:08:51.857,17.53,-7.16,-113.33,-0.3,-0.18,-0.43,0.13,0.31,0.98,1000
16:08:51.865,17.53,-7.16,-113.33,-0.18,-0.24,-0.49,0.13,0.31,0.98,1000
16:08:51.876,17.53,-7.16,-113.33,-0.18,-0.18,-0.73,0.13,0.31,0.97,1000
16:08:51.876,17.53,-7.16,-113.33,-0.18,-0.18,-0.43,0.13,0.31,0.98,1000
16:08:51.876,17.53,-7.16,-113.33,-0.18,-0.24,-0.24,0.13,0.31,0.98,1000
16:08:51.876,17.53,-7.16,-113.34,-0.12,-0.18,-0.49,0.13,0.31,0.97,1000
16:08:51.876,17.53,-7.16,-113.34,-0.24,-0.24,-0.43,0.13,0.31,0.97,1000
16:08:51.876,17.53,-7.16,-113.34,-0.24,-0.3,-0.43,0.12,0.31,0.97,1000
16:08:51.876,17.52,-7.16,-113.34,-0.18,-0.3,-0.37,0.13,0.31,0.98,1000
16:08:51.876,17.52,-7.16,-113.34,0.0,-0.24,-0.49,0.13,0.31,0.97,1000
16:08:51.879,17.52,-7.16,-113.34,-0.12,-0.3,-0.49,0.13,0.31,0.97,1000
16:08:51.880,17.53,-7.16,-113.34,-0.06,-0.18,-0.61,0.13,0.31,0.97,1000
16:08:51.882,17.52,-7.16,-113.34,-0.24,-0.18,-0.43,0.12,0.31,0.97,1000
16:08:51.884,17.52,-7.16,-113.34,-0.18,-0.12,-0.55,0.13,0.31,0.97,1000
16:08:51.885,17.52,-7.16,-113.34,-0.06,-0.18,-0.43,0.13,0.31,0.97,1000
16:08:51.887,17.52,-7.16,-113.34,-0.18,-0.37,-0.61,0.13,0.31,0.97,1000
16:08:51.889,17.52,-7.16,-113.34,-0.24,-0.12,-0.61,0.13,0.31,0.97,1000
16:08:51.892,17.52,-7.16,-113.35,-0.24,-0.18,-0.67,0.13,0.31,0.97,1000
16:08:51.893,17.52,-7.16,-113.35,-0.18,0.0,-0.49,0.13,0.31,0.97,1000
16:08:51.895,17.52,-7.16,-113.35,-0.18,-0.18,-0.55,0.13,0.31,0.97,1000
16:08:51.897,17.52,-7.16,-113.35,-0.12,-0.24,-0.73,0.13,0.31,0.97,1000
16:08:51.899,17.52,-7.16,-113.35,0.06,-0.18,-0.73,0.13,0.31,0.97,1000
16:08:51.901,17.52,-7.16,-113.35,-0.06,-0.12,-0.49,0.13,0.31,0.97,1000
16:08:51.904,17.52,-7.16,-113.35,-0.12,-0.18,-0.55,0.13,0.31,0.97,1000
16:08:51.906,17.52,-7.16,-113.35,-0.12,-0.18,-0.49,0.13,0.31,0.97,1000
16:08:51.908,17.52,-7.16,-113.35,-0.18,-0.06,-0.55,0.13,0.31,0.97,1000
16:08:51.910,17.52,-7.16,-113.35,-0.18,-0.12,-0.61,0.12,0.31,0.97,1000
16:08:51.911,17.52,-7.16,-113.35,-0.12,-0.24,-0.61,0.13,0.31,0.97,1000
16:08:51.913,17.52,-7.16,-113.35,-0.06,-0.12,-0.43,0.13,0.31,0.97,1000
16:08:51.917,17.53,-7.16,-113.35,-0.12,-0.18,-0.43,0.13,0.31,0.97,1000
16:08:51.918,17.53,-7.16,-113.35,-0.12,-0.24,-0.55,0.12,0.31,0.97,1000
16:08:51.919,17.53,-7.16,-113.36,-0.18,-0.3,-0.55,0.13,0.31,0.97,1000
16:08:51.922,17.52,-7.16,-113.36,-0.18,-0.12,-0.55,0.13,0.31,0.97,1000
16:08:51.924,17.53,-7.16,-113.36,-0.06,-0.18,-0.55,0.13,0.31,0.97,1000
16:08:51.925,17.53,-7.16,-113.36,-0.18,0.0,-0.55,0.13,0.31,0.97,1000
16:08:51.927,17.53,-7.16,-113.36,-0.24,-0.06,-0.61,0.13,0.31,0.97,1000
16:08:51.929,17.53,-7.16,-113.36,-0.43,-0.37,-0.55,0.13,0.31,0.97,1000
16:08:51.931,17.53,-7.16,-113.36,-0.18,-0.3,-0.3,0.13,0.31,0.97,1000
16:08:51.934,17.53,-7.16,-113.36,-0.18,-0.37,-0.43,0.13,0.31,0.97,1000
16:08:51.935,17.53,-7.16,-113.36,-0.12,-0.37,-0.37,0.13,0.31,0.97,1000
16:08:51.937,17.53,-7.16,-113.36,-0.3,-0.18,-0.3,0.13,0.31,0.97,1000
16:08:51.940,17.53,-7.16,-113.36,-0.3,-0.18,-0.55,0.13,0.31,0.97,1000
16:08:51.944,17.53,-7.16,-113.36,-0.12,-0.24,-0.43,0.13,0.31,0.97,1000
16:08:51.945,17.53,-7.16,-113.36,-0.12,-0.37,-0.37,0.13,0.31,0.97,1000
16:08:51.946,17.53,-7.16,-113.36,-0.18,-0.3,-0.24,0.13,0.31,0.97,1000
16:08:51.948,17.53,-7.16,-113.36,0.0,-0.18,-0.49,0.13,0.31,0.97,1000
16:08:51.949,17.53,-7.16,-113.36,-0.3,-0.24,-0.55,0.13,0.31,0.97,1000
16:08:51.951,17.53,-7.16,-113.37,-0.18,-0.12,-0.3,0.13,0.31,0.97,1000
16:08:51.953,17.53,-7.16,-113.37,-0.18,-0.24,-0.49,0.13,0.31,0.97,1000
16:08:51.955,17.53,-7.16,-113.37,-0.18,-0.3,-0.49,0.13,0.31,0.97,1000
16:08:51.957,17.53,-7.16,-113.37,-0.18,-0.24,-0.67,0.13,0.31,0.97,1000
16:08:51.959,17.53,-7.16,-113.37,-0.3,-0.43,-0.49,0.13,0.31,0.97,1000
16:08:51.961,17.53,-7.16,-113.37,-0.18,-0.18,-0.37,0.13,0.31,0.97,1000
16:08:51.978,17.53,-7.16,-113.37,-0.18,-0.24,-0.67,0.12,0.31,0.97,1000
16:08:51.980,17.53,-7.16,-113.37,-0.24,-0.24,-0.49,0.13,0.31,0.97,1000
16:08:51.980,17.53,-7.16,-113.37,-0.24,-0.24,-0.49,0.13,0.31,0.97,1000
16:08:51.980,17.53,-7.16,-113.37,-0.3,-0.18,-0.61,0.12,0.31,0.97,1000
16:08:51.980,17.53,-7.16,-113.37,-0.24,-0.18,-0.49,0.13,0.31,0.97,1000
16:08:51.980,17.53,-7.16,-113.37,-0.18,-0.12,-0.3,0.13,0.31,0.97,1000
16:08:51.980,17.53,-7.16,-113.37,-0.18,-0.24,-0.3,0.13,0.31,0.97,1000
16:08:51.980,17.53,-7.16,-113.37,-0.18,-0.3,-0.18,0.13,0.31,0.97,1000
16:08:51.980,17.53,-7.16,-113.37,-0.24,-0.37,-0.43,0.13,0.31,0.97,1000
16:08:51.981,17.53,-7.16,-113.37,-0.24,-0.3,-0.37,0.13,0.31,0.97,1000
16:08:51.983,17.53,-7.16,-113.38,-0.3,-0.3,-0.49,0.13,0.31,0.97,1000
16:08:51.986,17.53,-7.16,-113.38,-0.24,-0.24,-0.3,0.13,0.31,0.97,1000
16:08:51.987,17.53,-7.16,-113.38,-0.18,-0.24,-0.43,0.13,0.31,0.97,1000
16:08:51.989,17.53,-7.16,-113.38,-0.3,-0.12,-0.37,0.13,0.31,0.97,1000
16:08:51.991,17.53,-7.16,-113.38,-0.3,0.12,-0.43,0.13,0.31,0.97,1000
16:08:51.993,17.53,-7.16,-113.38,-0.18,-0.18,-0.37,0.13,0.31,0.97,1000
16:08:51.995,17.53,-7.16,-113.38,-0.18,-0.3,-0.3,0.13,0.31,0.97,1000
16:08:51.997,17.53,-7.16,-113.38,-0.24,-0.18,-0.37,0.13,0.31,0.97,1000
16:08:51.999,17.53,-7.16,-113.38,-0.18,-0.24,-0.49,0.13,0.31,0.97,1000
16:08:52.003,17.53,-7.16,-113.38,-0.12,-0.24,-0.49,0.13,0.31,0.97,1000
16:08:52.003,17.53,-7.16,-113.38,-0.24,-0.18,-0.43,0.13,0.31,0.97,1000
16:08:52.005,17.53,-7.16,-113.38,-0.18,-0.24,-0.3,0.13,0.31,0.97,1000
16:08:52.007,17.53,-7.16,-113.38,-0.3,-0.24,-0.3,0.13,0.31,0.97,1000
16:08:52.010,17.53,-7.16,-113.38,-0.18,-0.12,-0.49,0.13,0.31,0.98,1000
16:08:52.011,17.53,-7.16,-113.38,-0.18,-0.37,-0.3,0.13,0.31,0.97,1000
16:08:52.013,17.53,-7.16,-113.38,-0.18,-0.3,-0.49,0.13,0.31,0.97,1000
16:08:52.015,17.53,-7.16,-113.38,-0.18,-0.18,-0.24,0.13,0.31,0.97,1000
16:08:52.018,17.53,-7.16,-113.38,-0.24,-0.24,-0.49,0.13,0.31,0.97,1000
16:08:52.019,17.53,-7.16,-113.38,-0.18,-0.24,-0.43,0.13,0.31,0.97,1000
16:08:52.021,17.53,-7.16,-113.39,-0.12,-0.18,-0.37,0.13,0.31,0.97,1000
16:08:52.023,17.53,-7.16,-113.39,-0.18,-0.12,-0.37,0.13,0.31,0.97,1000
16:08:52.027,17.53,-7.16,-113.39,-0.3,-0.18,-0.43,0.13,0.31,0.97,1000
16:08:52.027,17.53,-7.16,-113.39,-0.3,-0.3,-0.49,0.13,0.31,0.97,1000
16:08:52.029,17.53,-7.16,-113.39,-0.24,-0.3,-0.55,0.13,0.31,0.97,1000
16:08:52.031,17.53,-7.16,-113.39,-0.3,-0.18,-0.43,0.13,0.31,0.97,1000
16:08:52.034,17.53,-7.16,-113.39,-0.18,-0.12,-0.37,0.13,0.31,0.97,1000
16:08:52.037,17.53,-7.16,-113.39,-0.06,-0.18,-0.43,0.13,0.31,0.97,1000
16:08:52.038,17.53,-7.16,-113.39,-0.12,-0.24,-0.37,0.13,0.31,0.97,1000
16:08:52.039,17.53,-7.16,-113.39,-0.12,-0.18,-0.43,0.13,0.31,0.97,1000
16:08:52.041,17.53,-7.16,-113.39,-0.18,-0.18,-0.43,0.13,0.31,0.97,1000
16:08:52.045,17.53,-7.16,-113.39,-0.18,-0.18,-0.55,0.13,0.31,0.97,1000
16:08:52.046,17.53,-7.16,-113.39,-0.18,-0.12,-0.43,0.13,0.31,0.97,1000
16:08:52.047,17.53,-7.16,-113.39,-0.12,-0.24,-0.49,0.13,0.31,0.97,1000
16:08:52.049,17.54,-7.16,-113.39,-0.18,-0.3,-0.37,0.13,0.31,0.97,1000
16:08:52.051,17.54,-7.16,-113.4,-0.24,-0.12,-0.3,0.13,0.31,0.97,1000
16:08:52.054,17.54,-7.16,-113.4,-0.3,-0.18,-0.43,0.13,0.31,0.97,1000
16:08:52.055,17.54,-7.16,-113.4,-0.18,-0.3,-0.55,0.13,0.31,0.97,1000
16:08:52.057,17.54,-7.16,-113.4,-0.24,-0.24,-0.43,0.12,0.31,0.97,1000
16:08:52.059,17.54,-7.16,-113.4,-0.3,-0.18,-0.43,0.13,0.31,0.97,1000
16:08:52.061,17.54,-7.16,-113.4,-0.24,-0.37,-0.49,0.13,0.31,0.97,1000
16:08:52.063,17.54,-7.16,-113.4,-0.3,-0.24,-0.43,0.13,0.31,0.97,1000
16:08:52.081,17.54,-7.16,-113.4,-0.24,-0.3,-0.55,0.13,0.31,0.97,1000
16:08:52.081,17.54,-7.16,-113.4,-0.18,-0.12,-0.37,0.12,0.31,0.97,1000
16:08:52.081,17.54,-7.16,-113.4,-0.24,-0.18,-0.3,0.12,0.31,0.97,1000
16:08:52.081,17.54,-7.16,-113.4,-0.24,-0.3,-0.43,0.13,0.31,0.97,1000
16:08:52.081,17.54,-7.16,-113.4,-0.3,-0.3,-0.3,0.13,0.31,0.97,1000
16:08:52.081,17.54,-7.16,-113.4,-0.3,-0.3,-0.49,0.13,0.31,0.97,1000
16:08:52.081,17.54,-7.16,-113.4,-0.3,-0.37,-0.61,0.13,0.31,0.97,1000
16:08:52.082,17.54,-7.16,-113.4,-0.37,-0.18,-0.37,0.12,0.31,0.97,1000
16:08:52.082,17.54,-7.16,-113.4,-0.18,-0.12,-0.43,0.13,0.31,0.97,1000
16:08:52.084,17.54,-7.16,-113.4,-0.18,-0.24,-0.43,0.13,0.31,0.97,1000
16:08:52.085,17.54,-7.16,-113.4,-0.18,0.0,-0.49,0.13,0.31,0.97,1000
16:08:52.091,17.54,-7.16,-113.41,-0.18,-0.12,-0.49,0.13,0.31,0.97,1000
16:08:52.091,17.54,-7.16,-113.41,-0.3,-0.18,-0.55,0.13,0.31,0.97,1000
16:08:52.091,17.54,-7.16,-113.41,-0.3,-0.3,-0.49,0.13,0.31,0.97,1000
16:08:52.094,17.54,-7.16,-113.41,-0.24,-0.18,-0.43,0.13,0.31,0.97,1000
16:08:52.095,17.54,-7.16,-113.41,-0.18,-0.24,-0.43,0.13,0.31,0.97,1000
16:08:52.097,17.54,-7.16,-113.41,-0.24,-0.37,-0.3,0.13,0.31,0.97,1000
16:08:52.099,17.54,-7.16,-113.41,-0.18,-0.18,-0.55,0.13,0.31,0.97,1000
16:08:52.101,17.54,-7.16,-113.41,-0.18,-0.12,-0.49,0.13,0.31,0.97,1000
16:08:52.103,17.54,-7.16,-113.41,-0.18,-0.18,-0.3,0.13,0.31,0.97,1000
16:08:52.105,17.54,-7.16,-113.41,-0.12,-0.06,-0.49,0.13,0.31,0.97,1000
16:08:52.109,17.54,-7.16,-113.41,-0.18,-0.18,-0.37,0.13,0.31,0.97,1000
16:08:52.109,17.54,-7.16,-113.41,-0.18,-0.24,-0.3,0.13,0.31,0.97,1000
16:08:52.113,17.54,-7.16,-113.41,-0.24,-0.12,-0.43,0.13,0.31,0.97,1000
16:08:52.113,17.54,-7.16,-113.41,-0.18,-0.12,-0.3,0.13,0.31,0.97,1000
16:08:52.116,17.54,-7.15,-113.41,-0.12,-0.24,-0.37,0.12,0.31,0.98,1000
16:08:52.117,17.54,-7.15,-113.41,-0.18,-0.3,-0.55,0.13,0.31,0.97,1000
16:08:52.119,17.54,-7.15,-113.41,-0.3,-0.24,-0.49,0.13,0.31,0.97,1000
16:08:52.121,17.54,-7.15,-113.42,-0.24,-0.3,-0.37,0.13,0.31,0.97,1000
16:08:52.123,17.54,-7.15,-113.42,-0.24,-0.24,-0.3,0.13,0.31,0.97,1000
16:08:52.126,17.54,-7.15,-113.42,-0.18,-0.3,-0.37,0.13,0.31,0.97,1000
16:08:52.129,17.54,-7.15,-113.42,-0.18,-0.3,-0.43,0.13,0.31,0.97,1000
16:08:52.130,17.54,-7.15,-113.42,-0.18,-0.18,-0.43,0.13,0.31,0.97,1000
16:08:52.132,17.54,-7.15,-113.42,-0.24,-0.18,-0.43,0.13,0.31,0.97,1000
16:08:52.134,17.54,-7.15,-113.42,-0.12,-0.43,-0.37,0.13,0.31,0.97,1000
16:08:52.135,17.54,-7.15,-113.42,-0.18,-0.37,-0.43,0.13,0.31,0.97,1000
16:08:52.139,17.54,-7.15,-113.42,-0.12,-0.06,-0.37,0.13,0.31,0.97,1000
16:08:52.140,17.54,-7.15,-113.42,-0.18,-0.24,-0.49,0.13,0.31,0.97,1000
16:08:52.141,17.54,-7.15,-113.42,-0.18,-0.06,-0.3,0.13,0.31,0.97,1000
16:08:52.143,17.54,-7.15,-113.42,-0.3,-0.12,-0.61,0.13,0.31,0.97,1000
16:08:52.147,17.54,-7.15,-113.42,-0.24,-0.18,-0.43,0.13,0.31,0.97,1000
16:08:52.148,17.54,-7.15,-113.42,-0.3,-0.06,-0.49,0.13,0.31,0.97,1000
16:08:52.149,17.54,-7.15,-113.42,-0.12,-0.06,-0.49,0.13,0.31,0.97,1000
16:08:52.151,17.54,-7.15,-113.42,-0.24,-0.06,-0.61,0.13,0.31,0.97,1000
16:08:52.153,17.54,-7.15,-113.43,-0.3,-0.12,-0.61,0.13,0.31,0.97,1000
16:08:52.156,17.54,-7.15,-113.43,-0.24,-0.18,-0.67,0.13,0.31,0.97,1000
16:08:52.157,17.54,-7.15,-113.43,-0.12,-0.3,-0.3,0.13,0.31,0.97,1000
16:08:52.159,17.54,-7.15,-113.43,-0.18,-0.24,-0.3,0.12,0.31,0.97,1000
16:08:52.161,17.54,-7.15,-113.43,-0.12,-0.24,-0.43,0.13,0.31,0.97,1000
16:08:52.164,17.54,-7.15,-113.43,-0.12,-0.37,-0.12,0.13,0.31,0.97,1000
16:08:52.166,17.54,-7.15,-113.43,-0.18,-0.37,-0.3,0.13,0.31,0.97,1000
16:08:52.172,17.54,-7.16,-113.43,-0.12,-0.43,-0.37,0.13,0.31,0.97,1000
16:08:52.176,17.54,-7.16,-113.43,-0.18,-0.24,-0.55,0.13,0.31,0.97,1000
16:08:52.176,17.54,-7.16,-113.43,-0.18,-0.24,-0.49,0.13,0.31,0.97,1000
16:08:52.185,17.54,-7.16,-113.43,-0.24,-0.43,-0.49,0.13,0.31,0.97,1000
16:08:52.185,17.54,-7.16,-113.43,-0.24,-0.18,-0.43,0.13,0.31,0.97,1000
16:08:52.185,17.54,-7.16,-113.43,-0.3,-0.18,-0.37,0.13,0.31,0.97,1000
16:08:52.185,17.54,-7.16,-113.43,-0.06,-0.24,-0.55,0.13,0.31,0.97,1000
16:08:52.185,17.54,-7.16,-113.43,-0.18,-0.18,-0.37,0.13,0.31,0.97,1000
16:08:52.185,17.54,-7.16,-113.43,-0.18,-0.24,-0.61,0.13,0.31,0.97,1000
16:08:52.186,17.54,-7.16,-113.43,-0.18,-0.24,-0.24,0.13,0.31,0.97,1000
16:08:52.187,17.54,-7.16,-113.44,-0.37,-0.3,-0.55,0.13,0.31,0.97,1000
16:08:52.191,17.54,-7.16,-113.44,-0.18,-0.37,-0.37,0.13,0.31,0.97,1000
16:08:52.192,17.54,-7.16,-113.44,-0.18,-0.12,-0.55,0.13,0.31,0.97,1000
16:08:52.193,17.54,-7.16,-113.44,-0.3,-0.3,-0.24,0.13,0.31,0.97,1000
16:08:52.195,17.54,-7.16,-113.44,-0.18,-0.3,-0.49,0.13,0.31,0.97,1000
16:08:52.197,17.54,-7.16,-113.44,-0.24,-0.3,-0.3,0.13,0.31,0.97,1000
16:08:52.200,17.54,-7.16,-113.44,-0.18,-0.37,-0.49,0.13,0.31,0.97,1000
16:08:52.201,17.54,-7.16,-113.44,-0.18,-0.37,-0.67,0.13,0.31,0.97,1000
16:08:52.203,17.54,-7.16,-113.44,-0.18,-0.3,-0.55,0.13,0.31,0.97,1000
16:08:52.205,17.54,-7.16,-113.44,-0.18,-0.24,-0.43,0.13,0.31,0.97,1000
16:08:52.207,17.54,-7.16,-113.44,-0.24,-0.24,-0.61,0.12,0.31,0.97,1000
16:08:52.210,17.54,-7.16,-113.44,-0.24,-0.3,-0.43,0.13,0.31,0.97,1000
16:08:52.211,17.54,-7.16,-113.44,-0.18,-0.06,-0.55,0.13,0.31,0.97,1000
16:08:52.215,17.54,-7.16,-113.44,-0.24,-0.24,-0.49,0.13,0.31,0.97,1000
16:08:52.216,17.54,-7.16,-113.44,-0.24,-0.24,-0.49,0.13,0.31,0.97,1000
16:08:52.217,17.54,-7.16,-113.44,-0.18,-0.3,-0.3,0.13,0.31,0.97,1000
16:08:52.219,17.54,-7.16,-113.44,-0.18,-0.24,-0.43,0.13,0.31,0.97,1000
16:08:52.221,17.54,-7.16,-113.45,-0.12,-0.37,-0.37,0.13,0.31,0.97,1000
16:08:52.223,17.54,-7.16,-113.45,-0.18,-0.3,-0.43,0.13,0.31,0.97,1000
16:08:52.226,17.54,-7.16,-113.45,-0.18,-0.18,-0.43,0.13,0.31,0.97,1000
16:08:52.228,17.54,-7.16,-113.45,-0.12,-0.3,-0.49,0.13,0.31,0.97,1000
16:08:52.229,17.54,-7.16,-113.45,-0.18,-0.37,-0.49,0.13,0.31,0.97,1000
16:08:52.232,17.54,-7.16,-113.45,-0.18,-0.3,-0.3,0.13,0.31,0.97,1000
16:08:52.233,17.54,-7.16,-113.45,-0.24,-0.24,-0.61,0.13,0.31,0.97,1000
16:08:52.235,17.54,-7.16,-113.45,-0.3,-0.18,-0.61,0.13,0.31,0.97,1000
16:08:52.237,17.54,-7.16,-113.45,-0.18,-0.06,-0.43,0.13,0.31,0.97,1000
16:08:52.242,17.54,-7.16,-113.45,-0.18,-0.24,-0.49,0.13,0.31,0.97,1000
16:08:52.244,17.54,-7.16,-113.45,-0.37,-0.3,-0.49,0.13,0.31,0.97,1000
16:08:52.244,17.54,-7.16,-113.45,-0.24,-0.24,-0.43,0.13,0.31,0.97,1000
16:08:52.246,17.54,-7.16,-113.45,-0.24,-0.3,-0.55,0.13,0.31,0.97,1000
16:08:52.250,17.54,-7.16,-113.45,-0.12,-0.06,-0.37,0.13,0.31,0.97,1000
16:08:52.250,17.54,-7.16,-113.45,-0.18,-0.18,-0.3,0.13,0.31,0.97,1000
16:08:52.251,17.54,-7.16,-113.45,-0.18,-0.24,-0.37,0.13,0.31,0.97,1000
16:08:52.253,17.54,-7.16,-113.46,-0.18,-0.24,-0.61,0.13,0.31,0.97,1000
16:08:52.256,17.54,-7.16,-113.46,-0.18,-0.18,-0.3,0.13,0.31,0.97,1000
16:08:52.259,17.54,-7.16,-113.46,-0.3,-0.24,-0.49,0.13,0.31,0.97,1000
16:08:52.260,17.54,-7.16,-113.46,-0.3,-0.18,-0.37,0.13,0.31,0.97,1000
16:08:52.263,17.54,-7.16,-113.46,-0.24,-0.3,-0.55,0.13,0.31,0.97,1000
16:08:52.263,17.54,-7.16,-113.46,-0.24,-0.24,-0.55,0.13,0.31,0.97,1000
16:08:52.265,17.54,-7.16,-113.46,-0.3,-0.3,-0.49,0.13,0.31,0.97,1000
16:08:52.268,17.54,-7.16,-113.46,-0.18,-0.18,-0.43,0.13,0.31,0.97,1000
16:08:52.274,17.54,-7.16,-113.46,-0.24,-0.3,-0.43,0.13,0.31,0.97,1000
16:08:52.285,17.54,-7.16,-113.46,-0.24,-0.18,-0.43,0.13,0.31,0.97,1000
16:08:52.285,17.54,-7.16,-113.46,-0.24,-0.12,-0.55,0.13,0.31,0.97,1000
16:08:52.285,17.54,-7.16,-113.46,-0.3,-0.18,-0.37,0.13,0.31,0.97,1000
16:08:52.286,17.54,-7.16,-113.46,-0.18,-0.43,-0.43,0.13,0.31,0.97,1000
16:08:52.286,17.54,-7.16,-113.46,-0.18,-0.3,-0.43,0.13,0.31,0.97,1000
16:08:52.286,17.54,-7.16,-113.46,-0.18,-0.37,-0.43,0.13,0.31,0.97,1000
16:08:52.286,17.54,-7.16,-113.46,-0.18,-0.18,-0.55,0.13,0.31,0.97,1000
16:08:52.286,17.54,-7.16,-113.47,-0.3,-0.37,-0.67,0.13,0.31,0.97,1000
16:08:52.288,17.54,-7.16,-113.47,-0.24,-0.24,-0.49,0.12,0.31,0.97,1000
16:08:52.290,17.54,-7.16,-113.47,-0.24,-0.18,-0.49,0.13,0.31,0.97,1000
16:08:52.291,17.54,-7.16,-113.47,-0.37,-0.37,-0.43,0.13,0.31,0.97,1000
16:08:52.294,17.54,-7.16,-113.47,-0.24,-0.24,-0.49,0.13,0.31,0.97,1000
16:08:52.295,17.54,-7.16,-113.47,-0.3,-0.06,-0.37,0.13,0.31,0.97,1000
16:08:52.297,17.54,-7.16,-113.47,-0.18,-0.24,-0.37,0.13,0.31,0.97,1000
16:08:52.300,17.54,-7.16,-113.47,-0.24,-0.3,-0.49,0.13,0.31,0.97,1000
16:08:52.301,17.54,-7.16,-113.47,-0.43,-0.24,-0.37,0.13,0.31,0.97,1000
16:08:52.304,17.54,-7.16,-113.47,-0.18,-0.24,-0.43,0.13,0.31,0.97,1000
16:08:52.306,17.54,-7.16,-113.47,-0.24,-0.12,-0.49,0.13,0.31,0.97,1000
16:08:52.308,17.54,-7.16,-113.47,-0.3,-0.24,-0.3,0.13,0.31,0.97,1000
16:08:52.309,17.54,-7.16,-113.47,-0.18,-0.24,-0.43,0.13,0.31,0.97,1000
16:08:52.311,17.54,-7.16,-113.47,-0.3,-0.18,-0.55,0.13,0.31,0.97,1000
16:08:52.314,17.54,-7.16,-113.47,-0.18,-0.06,-0.49,0.13,0.31,0.97,1000
16:08:52.317,17.54,-7.16,-113.48,-0.18,-0.18,-0.37,0.13,0.31,0.97,1000
16:08:52.318,17.54,-7.16,-113.48,-0.12,-0.37,-0.37,0.13,0.31,0.97,1000
16:08:52.319,17.54,-7.16,-113.48,-0.06,-0.12,-0.43,0.13,0.31,0.97,1000
16:08:52.322,17.54,-7.16,-113.48,-0.12,-0.24,-0.55,0.13,0.31,0.97,1000
16:08:52.323,17.54,-7.16,-113.48,-0.24,-0.06,-0.61,0.13,0.31,0.97,1000
16:08:52.328,17.54,-7.16,-113.48,-0.18,-0.3,-0.3,0.13,0.31,0.98,1000
16:08:52.329,17.54,-7.16,-113.48,-0.12,-0.3,-0.37,0.13,0.31,0.97,1000
16:08:52.329,17.54,-7.16,-113.48,-0.24,-0.18,-0.43,0.13,0.31,0.97,1000
16:08:52.331,17.54,-7.16,-113.48,-0.18,-0.18,-0.37,0.13,0.31,0.97,1000
16:08:52.334,17.54,-7.16,-113.48,-0.12,-0.12,-0.37,0.13,0.31,0.97,1000
16:08:52.335,17.54,-7.17,-113.48,-0.18,-0.24,-0.43,0.13,0.31,0.97,1000
16:08:52.337,17.54,-7.17,-113.48,-0.3,-0.3,-0.3,0.13,0.31,0.97,1000
16:08:52.339,17.54,-7.17,-113.48,-0.24,-0.3,-0.61,0.13,0.31,0.97,1000
16:08:52.341,17.54,-7.17,-113.48,-0.24,-0.12,-0.55,0.13,0.31,0.97,1000
16:08:52.344,17.54,-7.17,-113.48,-0.24,-0.18,-0.67,0.13,0.31,0.98,1000
16:08:52.346,17.54,-7.17,-113.49,-0.12,-0.18,-0.3,0.13,0.31,0.97,1000
16:08:52.349,17.54,-7.17,-113.49,-0.18,-0.12,-0.3,0.13,0.31,0.97,1000
16:08:52.350,17.54,-7.17,-113.49,-0.12,-0.12,-0.55,0.13,0.31,0.97,1000
16:08:52.352,17.54,-7.17,-113.49,-0.18,-0.3,-0.55,0.13,0.31,0.97,1000
16:08:52.353,17.54,-7.17,-113.49,-0.18,-0.24,-0.55,0.13,0.31,0.97,1000
16:08:52.355,17.54,-7.17,-113.49,-0.3,-0.18,-0.18,0.13,0.31,0.97,1000
16:08:52.358,17.54,-7.17,-113.49,-0.18,-0.3,-0.37,0.13,0.31,0.97,1000
16:08:52.361,17.54,-7.17,-113.49,-0.24,-0.18,-0.55,0.13,0.31,0.97,1000
16:08:52.362,17.54,-7.17,-113.49,-0.3,-0.06,-0.3,0.13,0.31,0.97,1000
16:08:52.363,17.54,-7.17,-113.49,-0.18,0.0,-0.55,0.13,0.31,0.97,1000
16:08:52.365,17.54,-7.17,-113.49,-0.12,-0.18,-0.3,0.13,0.31,0.97,1000
16:08:52.367,17.54,-7.17,-113.49,-0.3,-0.18,-0.3,0.13,0.31,0.97,1000
16:08:52.369,17.54,-7.17,-113.49,-0.18,-0.18,-0.49,0.13,0.31,0.97,1000
16:08:52.371,17.54,-7.17,-113.49,-0.18,-0.24,-0.67,0.13,0.31,0.97,1000
16:08:52.378,17.54,-7.17,-113.49,-0.18,-0.24,-0.3,0.13,0.31,0.97,1000
16:08:52.378,17.54,-7.17,-113.49,-0.18,-0.43,-0.37,0.13,0.31,0.97,1000
16:08:52.378,17.54,-7.17,-113.49,-0.18,-0.18,-0.43,0.13,0.31,0.97,1000
16:08:52.388,17.54,-7.17,-113.5,-0.18,-0.3,-0.73,0.13,0.31,0.97,1000
16:08:52.389,17.54,-7.17,-113.5,-0.18,-0.37,-0.37,0.13,0.31,0.97,1000
16:08:52.389,17.54,-7.17,-113.5,-0.12,-0.37,-0.49,0.13,0.31,0.97,1000
16:08:52.389,17.54,-7.17,-113.5,-0.18,-0.3,-0.43,0.13,0.31,0.97,1000
16:08:52.389,17.54,-7.17,-113.5,-0.18,-0.3,-0.3,0.13,0.31,0.97,1000
16:08:52.390,17.54,-7.17,-113.5,-0.24,-0.18,-0.55,0.13,0.31,0.97,1000
16:08:52.391,17.54,-7.17,-113.5,-0.12,-0.24,-0.37,0.13,0.31,0.97,1000
16:08:52.394,17.54,-7.17,-113.5,-0.24,-0.3,-0.73,0.13,0.31,0.97,1000
16:08:52.396,17.54,-7.17,-113.5,-0.18,-0.18,-0.43,0.13,0.31,0.97,1000
16:08:52.397,17.54,-7.17,-113.5,-0.18,-0.3,-0.3,0.13,0.31,0.97,1000
16:08:52.399,17.54,-7.17,-113.5,-0.3,-0.18,-0.37,0.13,0.31,0.97,1000
16:08:52.401,17.54,-7.17,-113.5,-0.18,-0.37,-0.3,0.13,0.31,0.97,1000
16:08:52.403,17.54,-7.17,-113.5,-0.37,-0.3,-0.37,0.13,0.31,0.97,1000
16:08:52.405,17.54,-7.17,-113.5,-0.24,-0.24,-0.49,0.13,0.31,0.97,1000
16:08:52.407,17.54,-7.17,-113.51,-0.18,-0.37,-0.43,0.13,0.31,0.97,1000
16:08:52.409,17.54,-7.17,-113.51,-0.3,-0.3,-0.3,0.13,0.31,0.97,1000
16:08:52.411,17.54,-7.17,-113.51,-0.24,-0.06,-0.49,0.13,0.31,0.97,1000
16:08:52.414,17.54,-7.17,-113.51,-0.18,-0.3,-0.3,0.13,0.31,0.97,1000
16:08:52.416,17.54,-7.17,-113.51,-0.3,-0.18,-0.3,0.13,0.31,0.97,1000
16:08:52.419,17.54,-7.17,-113.51,-0.24,-0.18,-0.55,0.13,0.31,0.97,1000
16:08:52.419,17.54,-7.17,-113.51,-0.3,-0.12,-0.73,0.13,0.31,0.97,1000
16:08:52.422,17.54,-7.17,-113.51,-0.24,-0.24,-0.49,0.13,0.31,0.97,1000
16:08:52.423,17.54,-7.17,-113.51,-0.3,-0.18,-0.37,0.13,0.31,0.97,1000
16:08:52.425,17.54,-7.17,-113.51,-0.18,-0.3,-0.49,0.13,0.31,0.97,1000
16:08:52.427,17.54,-7.17,-113.51,-0.18,-0.3,-0.49,0.13,0.31,0.97,1000
16:08:52.429,17.54,-7.17,-113.51,-0.12,-0.3,-0.43,0.13,0.31,0.97,1000
16:08:52.431,17.54,-7.17,-113.51,-0.24,-0.3,-0.43,0.13,0.31,0.97,1000
16:08:52.433,17.54,-7.17,-113.51,-0.18,-0.3,-0.49,0.13,0.31,0.97,1000
16:08:52.436,17.54,-7.17,-113.52,-0.24,-0.24,-0.49,0.13,0.31,0.97,1000
16:08:52.437,17.54,-7.17,-113.52,-0.24,-0.24,-0.49,0.13,0.31,0.97,1000
16:08:52.439,17.54,-7.17,-113.52,-0.3,-0.24,-0.37,0.13,0.31,0.97,1000
16:08:52.442,17.54,-7.17,-113.52,-0.18,-0.37,-0.49,0.13,0.31,0.97,1000
16:08:52.447,17.54,-7.17,-113.52,-0.24,-0.3,-0.49,0.13,0.31,0.97,1000
16:08:52.447,17.54,-7.17,-113.52,-0.18,-0.3,-0.43,0.13,0.31,0.97,1000
16:08:52.448,17.54,-7.17,-113.52,-0.24,0.0,-0.3,0.13,0.31,0.97,1000
16:08:52.449,17.54,-7.17,-113.52,-0.24,-0.18,-0.3,0.13,0.31,0.97,1000
16:08:52.451,17.54,-7.17,-113.52,-0.12,-0.12,-0.37,0.13,0.31,0.97,1000
16:08:52.454,17.54,-7.17,-113.52,-0.18,-0.18,-0.37,0.13,0.31,0.97,1000
16:08:52.455,17.54,-7.17,-113.52,-0.12,-0.06,-0.49,0.13,0.31,0.97,1000
16:08:52.457,17.54,-7.17,-113.52,-0.18,-0.24,-0.49,0.13,0.31,0.97,1000
16:08:52.459,17.54,-7.17,-113.52,-0.18,0.0,-0.37,0.13,0.31,0.97,1000
16:08:52.463,17.54,-7.17,-113.52,-0.12,-0.24,-0.49,0.13,0.31,0.97,1000
16:08:52.464,17.54,-7.17,-113.52,-0.12,-0.3,-0.3,0.13,0.31,0.97,1000
16:08:52.465,17.54,-7.17,-113.52,-0.12,-0.06,-0.3,0.13,0.31,0.97,1000
16:08:52.467,17.54,-7.17,-113.52,-0.18,0.0,-0.49,0.13,0.31,0.97,1000
16:08:52.469,17.54,-7.17,-113.53,-0.18,-0.3,-0.43,0.13,0.31,0.97,1000
16:08:52.471,17.54,-7.17,-113.53,-0.37,-0.37,-0.55,0.13,0.31,0.97,1000
16:08:52.475,17.54,-7.17,-113.53,-0.18,-0.24,-0.55,0.13,0.31,0.97,1000
16:08:52.476,17.54,-7.17,-113.53,-0.06,-0.18,-0.49,0.13,0.31,0.97,1000
16:08:52.478,17.54,-7.17,-113.53,-0.18,-0.24,-0.43,0.13,0.31,0.97,1000
16:08:52.493,17.54,-7.17,-113.53,-0.24,-0.18,-0.43,0.13,0.31,0.97,1000
16:08:52.493,17.54,-7.17,-113.53,-0.12,-0.3,-0.49,0.13,0.31,0.97,1000
16:08:52.493,17.54,-7.17,-113.53,-0.24,-0.24,-0.55,0.13,0.31,0.97,1000
16:08:52.493,17.54,-7.17,-113.53,-0.18,-0.12,-0.43,0.13,0.31,0.97,1000
16:08:52.493,17.54,-7.17,-113.53,-0.18,-0.24,-0.3,0.13,0.31,0.97,1000
16:08:52.493,17.54,-7.17,-113.53,-0.24,-0.24,-0.3,0.13,0.31,0.97,1000
16:08:52.494,17.54,-7.17,-113.53,-0.24,-0.18,-0.49,0.13,0.31,0.97,1000
16:08:52.494,17.54,-7.17,-113.53,-0.18,-0.18,-0.3,0.13,0.31,0.97,1000
16:08:52.495,17.54,-7.17,-113.53,-0.18,-0.24,-0.37,0.13,0.31,0.97,1000
16:08:52.497,17.54,-7.17,-113.53,-0.37,-0.43,-0.3,0.13,0.31,0.97,1000
16:08:52.499,17.54,-7.17,-113.53,-0.18,-0.3,-0.43,0.13,0.31,0.97,1000
16:08:52.501,17.54,-7.17,-113.53,-0.3,-0.24,-0.43,0.13,0.31,0.97,1000
16:08:52.503,17.54,-7.17,-113.53,-0.18,-0.3,-0.18,0.13,0.31,0.97,1000
16:08:52.506,17.54,-7.17,-113.54,-0.3,-0.3,-0.55,0.13,0.31,0.97,1000
16:08:52.507,17.54,-7.17,-113.54,-0.18,-0.12,-0.55,0.13,0.31,0.97,1000
16:08:52.509,17.54,-7.17,-113.54,-0.3,-0.18,-0.49,0.13,0.31,0.97,1000
16:08:52.511,17.54,-7.17,-113.54,-0.43,-0.12,-0.49,0.13,0.31,0.97,1000
16:08:52.513,17.54,-7.17,-113.54,-0.37,-0.43,-0.3,0.13,0.31,0.97,1000
16:08:52.516,17.54,-7.17,-113.54,-0.43,-0.3,-0.43,0.13,0.31,0.97,1000
16:08:52.519,17.54,-7.17,-113.54,-0.18,-0.24,-0.49,0.13,0.31,0.97,1000
16:08:52.520,17.54,-7.17,-113.54,-0.18,-0.37,-0.49,0.13,0.31,0.97,1000
16:08:52.522,17.54,-7.17,-113.54,-0.18,-0.37,-0.18,0.13,0.31,0.97,1000
16:08:52.524,17.54,-7.17,-113.54,-0.24,-0.24,-0.3,0.13,0.31,0.98,1000
16:08:52.527,17.54,-7.17,-113.54,-0.18,-0.18,-0.43,0.13,0.31,0.97,1000
16:08:52.529,17.54,-7.17,-113.54,-0.3,-0.12,-0.49,0.13,0.31,0.97,1000
16:08:52.529,17.54,-7.17,-113.54,-0.24,-0.18,-0.49,0.13,0.31,0.97,1000
16:08:52.531,17.54,-7.17,-113.54,-0.18,0.0,-0.55,0.13,0.31,0.97,1000
16:08:52.534,17.54,-7.17,-113.55,-0.18,-0.37,-0.43,0.13,0.31,0.97,1000
16:08:52.535,17.54,-7.17,-113.55,-0.18,-0.37,-0.37,0.13,0.31,0.97,1000
16:08:52.539,17.54,-7.17,-113.55,-0.18,-0.24,-0.49,0.13,0.31,0.97,1000
16:08:52.539,17.54,-7.17,-113.55,-0.18,-0.3,-0.37,0.12,0.31,0.97,1000
16:08:52.541,17.54,-7.17,-113.55,-0.3,-0.3,-0.37,0.12,0.31,0.97,1000
16:08:52.543,17.54,-7.17,-113.55,-0.12,-0.24,-0.37,0.13,0.31,0.97,1000
16:08:52.546,17.54,-7.17,-113.55,-0.18,-0.24,-0.3,0.13,0.31,0.97,1000
16:08:52.549,17.54,-7.17,-113.55,-0.12,-0.18,-0.43,0.13,0.31,0.98,1000
16:08:52.550,17.53,-7.17,-113.55,-0.18,-0.12,-0.43,0.13,0.31,0.97,1000
16:08:52.552,17.53,-7.17,-113.55,-0.12,-0.12,-0.37,0.13,0.31,0.97,1000
16:08:52.554,17.53,-7.17,-113.55,-0.12,-0.18,-0.37,0.13,0.31,0.98,1000
16:08:52.557,17.53,-7.17,-113.55,-0.24,-0.24,-0.3,0.13,0.31,0.97,1000
16:08:52.558,17.53,-7.17,-113.55,-0.18,-0.18,-0.43,0.13,0.31,0.97,1000
16:08:52.559,17.53,-7.17,-113.55,-0.12,-0.06,-0.61,0.12,0.31,0.97,1000
16:08:52.562,17.53,-7.17,-113.55,-0.06,-0.18,-0.49,0.13,0.31,0.97,1000
16:08:52.563,17.53,-7.17,-113.56,-0.18,-0.12,-0.37,0.12,0.31,0.98,1000
16:08:52.566,17.53,-7.17,-113.56,-0.06,-0.06,-0.43,0.13,0.31,0.97,1000
16:08:52.568,17.53,-7.17,-113.56,-0.18,-0.24,-0.43,0.12,0.31,0.97,1000
16:08:52.569,17.53,-7.17,-113.56,-0.12,-0.24,-0.3,0.13,0.31,0.97,1000
16:08:52.571,17.53,-7.17,-113.56,-0.12,-0.06,-0.37,0.13,0.31,0.97,1000
16:08:52.573,17.53,-7.17,-113.56,-0.18,-0.18,-0.67,0.13,0.31,0.97,1000
16:08:52.575,17.53,-7.17,-113.56,-0.12,-0.12,-0.49,0.12,0.31,0.97,1000
16:08:52.579,17.53,-7.17,-113.56,-0.18,-0.18,-0.37,0.13,0.31,0.97,1000
16:08:52.591,17.53,-7.17,-113.56,-0.37,-0.06,-0.43,0.13,0.32,0.97,1000
16:08:52.592,17.53,-7.17,-113.56,-0.24,-0.06,-0.37,0.13,0.32,0.97,1000
16:08:52.592,17.53,-7.17,-113.56,-0.18,-0.3,-0.49,0.13,0.32,0.97,1000
16:08:52.592,17.53,-7.16,-113.56,-0.12,-0.18,-0.37,0.12,0.31,0.97,1000
16:08:52.592,17.53,-7.16,-113.56,-0.18,-0.18,-0.37,0.13,0.31,0.97,1000
16:08:52.592,17.53,-7.16,-113.56,-0.24,-0.18,-0.37,0.13,0.31,0.97,1000
16:08:52.592,17.53,-7.16,-113.56,-0.18,-0.3,-0.43,0.13,0.31,0.97,1000
16:08:52.593,17.53,-7.16,-113.56,-0.18,-0.3,-0.55,0.13,0.31,0.97,1000
16:08:52.595,17.53,-7.16,-113.57,-0.24,-0.3,-0.61,0.13,0.31,0.97,1000
16:08:52.599,17.53,-7.17,-113.57,-0.3,-0.37,-0.3,0.13,0.31,0.97,1000
16:08:52.600,17.54,-7.17,-113.57,-0.12,-0.24,-0.24,0.13,0.31,0.97,1000
16:08:52.603,17.54,-7.17,-113.57,-0.18,-0.12,-0.43,0.13,0.31,0.98,1000
16:08:52.604,17.54,-7.16,-113.57,-0.18,-0.12,-0.37,0.13,0.31,0.97,1000
16:08:52.615,17.54,-7.16,-113.57,-0.3,-0.12,-0.43,0.13,0.31,0.97,1000
16:08:52.615,17.54,-7.16,-113.57,-0.37,-0.3,-0.43,0.13,0.31,0.97,1000
16:08:52.615,17.54,-7.17,-113.57,-0.12,-0.37,-0.3,0.13,0.31,0.97,1000
16:08:52.616,17.54,-7.17,-113.57,-0.37,-0.18,-0.49,0.13,0.31,0.97,1000
16:08:52.616,17.54,-7.17,-113.57,-0.3,-0.24,-0.49,0.13,0.31,0.97,1000
16:08:52.616,17.54,-7.17,-113.57,-0.24,-0.3,-0.49,0.13,0.31,0.97,1000
16:08:52.626,17.54,-7.17,-113.57,-0.24,-0.12,-0.3,0.13,0.31,0.97,1000
16:08:52.626,17.54,-7.17,-113.57,-0.3,-0.18,-0.3,0.13,0.31,0.97,1000
16:08:52.626,17.54,-7.17,-113.57,-0.3,-0.18,-0.3,0.13,0.31,0.97,1000
16:08:52.626,17.54,-7.17,-113.58,-0.43,-0.3,-0.55,0.13,0.31,0.97,1000
16:08:52.626,17.54,-7.17,-113.58,-0.3,-0.3,-0.37,0.13,0.31,0.97,1000
16:08:52.628,17.54,-7.17,-113.58,-0.37,-0.3,-0.3,0.13,0.31,0.97,1000
16:08:52.632,17.54,-7.17,-113.58,-0.3,-0.3,-0.55,0.13,0.31,0.97,1000
16:08:52.634,17.54,-7.17,-113.58,-0.18,-0.3,-0.43,0.13,0.31,0.97,1000
16:08:52.634,17.54,-7.17,-113.58,-0.3,-0.3,-0.49,0.13,0.31,0.97,1000
16:08:52.636,17.54,-7.17,-113.58,-0.18,-0.24,-0.49,0.13,0.31,0.97,1000
16:08:52.637,17.54,-7.17,-113.58,-0.43,-0.3,-0.3,0.13,0.31,0.97,1000
16:08:52.640,17.54,-7.17,-113.58,-0.18,-0.12,-0.3,0.13,0.31,0.97,1000
16:08:52.642,17.54,-7.17,-113.58,-0.3,-0.3,-0.55,0.13,0.31,0.97,1000
16:08:52.643,17.54,-7.17,-113.58,-0.18,-0.24,-0.43,0.13,0.31,0.97,1000
16:08:52.645,17.54,-7.17,-113.58,-0.24,-0.18,-0.37,0.13,0.31,0.97,1000
16:08:52.647,17.54,-7.17,-113.58,-0.3,-0.24,-0.49,0.13,0.31,0.97,1000
16:08:52.651,17.54,-7.17,-113.58,-0.18,-0.3,-0.3,0.13,0.31,0.97,1000
16:08:52.652,17.54,-7.17,-113.58,-0.37,-0.43,-0.3,0.13,0.31,0.97,1000
16:08:52.653,17.54,-7.17,-113.58,-0.3,-0.37,-0.3,0.13,0.31,0.97,1000
16:08:52.655,17.54,-7.17,-113.58,-0.18,-0.24,-0.49,0.12,0.31,0.98,1000
16:08:52.659,17.54,-7.17,-113.58,-0.3,-0.18,-0.43,0.13,0.31,0.97,1000
16:08:52.660,17.54,-7.17,-113.59,-0.18,-0.12,-0.61,0.13,0.31,0.97,1000
16:08:52.661,17.54,-7.17,-113.59,-0.18,-0.24,-0.3,0.12,0.31,0.97,1000
16:08:52.663,17.54,-7.17,-113.59,-0.24,-0.18,-0.43,0.13,0.31,0.97,1000
16:08:52.665,17.54,-7.17,-113.59,-0.18,-0.12,-0.3,0.13,0.31,0.97,1000
16:08:52.670,17.54,-7.17,-113.59,-0.12,-0.24,-0.61,0.12,0.31,0.97,1000
16:08:52.670,17.54,-7.17,-113.59,-0.3,-0.24,-0.61,0.13,0.31,0.97,1000
16:08:52.672,17.54,-7.17,-113.59,-0.24,-0.18,-0.37,0.13,0.31,0.97,1000
16:08:52.674,17.54,-7.17,-113.59,-0.3,-0.3,-0.55,0.13,0.31,0.97,1000
16:08:52.675,17.54,-7.17,-113.59,-0.18,-0.37,-0.3,0.13,0.31,0.97,1000
16:08:52.677,17.54,-7.17,-113.59,-0.18,-0.18,-0.43,0.13,0.31,0.97,1000
16:08:52.684,17.54,-7.17,-113.59,-0.12,-0.24,-0.3,0.13,0.31,0.97,1000
16:08:52.685,17.54,-7.17,-113.59,-0.24,-0.24,-0.3,0.13,0.31,0.97,1000
16:08:52.685,17.54,-7.17,-113.59,-0.18,-0.24,-0.18,0.13,0.31,0.97,1000
16:08:52.695,17.54,-7.17,-113.59,-0.18,-0.3,-0.55,0.13,0.31,0.97,1000
16:08:52.696,17.54,-7.17,-113.59,-0.18,-0.24,-0.37,0.13,0.31,0.97,1000
16:08:52.696,17.53,-7.17,-113.59,-0.18,-0.24,-0.37,0.13,0.31,0.97,1000
16:08:52.696,17.53,-7.17,-113.59,-0.12,-0.3,-0.43,0.13,0.31,0.97,1000
16:08:52.696,17.53,-7.17,-113.59,-0.12,-0.24,-0.49,0.13,0.31,0.97,1000
16:08:52.696,17.53,-7.17,-113.6,-0.18,-0.3,-0.43,0.13,0.31,0.97,1000
16:08:52.697,17.53,-7.17,-113.6,-0.24,-0.24,-0.37,0.13,0.31,0.97,1000
16:08:52.699,17.53,-7.17,-113.6,-0.24,-0.18,-0.49,0.13,0.31,0.97,1000
16:08:52.703,17.53,-7.17,-113.6,-0.18,-0.12,-0.49,0.13,0.31,0.97,1000
16:08:52.704,17.53,-7.17,-113.6,-0.18,-0.06,-0.67,0.13,0.31,0.97,1000
16:08:52.705,17.53,-7.17,-113.6,-0.3,0.0,-0.61,0.12,0.31,0.97,1000
16:08:52.707,17.53,-7.17,-113.6,-0.18,-0.24,-0.49,0.13,0.31,0.97,1000
16:08:52.709,17.54,-7.17,-113.6,-0.18,-0.12,-0.37,0.13,0.31,0.97,1000
16:08:52.711,17.54,-7.17,-113.6,-0.18,-0.18,-0.61,0.13,0.31,0.97,1000
16:08:52.713,17.54,-7.17,-113.6,-0.12,-0.24,-0.55,0.13,0.31,0.97,1000
16:08:52.715,17.54,-7.17,-113.6,-0.18,-0.12,-0.49,0.13,0.31,0.97,1000
16:08:52.717,17.54,-7.17,-113.6,-0.3,-0.24,-0.61,0.13,0.31,0.97,1000
16:08:52.719,17.54,-7.17,-113.6,-0.18,-0.18,-0.61,0.13,0.31,0.97,1000
16:08:52.722,17.54,-7.17,-113.61,-0.18,-0.3,-0.55,0.13,0.31,0.97,1000
16:08:52.724,17.54,-7.17,-113.61,-0.18,-0.24,-0.37,0.13,0.31,0.97,1000
16:08:52.726,17.54,-7.17,-113.61,-0.18,-0.3,-0.73,0.13,0.31,0.97,1000
16:08:52.727,17.54,-7.17,-113.61,-0.24,-0.18,-0.24,0.13,0.31,0.97,1000
16:08:52.729,17.54,-7.17,-113.61,-0.3,-0.18,-0.37,0.13,0.31,0.97,1000
16:08:52.733,17.54,-7.17,-113.61,-0.3,-0.06,-0.61,0.13,0.31,0.97,1000
16:08:52.733,17.54,-7.17,-113.61,-0.18,-0.18,-0.61,0.13,0.31,0.97,1000
16:08:52.735,17.54,-7.17,-113.61,-0.18,-0.3,-0.49,0.13,0.31,0.97,1000
16:08:52.738,17.54,-7.17,-113.61,-0.24,-0.3,-0.61,0.13,0.31,0.97,1000
16:08:52.740,17.54,-7.17,-113.61,-0.24,-0.3,-0.43,0.13,0.31,0.97,1000
16:08:52.742,17.54,-7.17,-113.61,-0.3,-0.12,-0.55,0.13,0.31,0.97,1000
16:08:52.743,17.54,-7.17,-113.61,-0.3,-0.18,-0.49,0.13,0.31,0.97,1000
16:08:52.745,17.54,-7.17,-113.61,-0.3,-0.18,-0.55,0.12,0.31,0.97,1000
16:08:52.747,17.54,-7.17,-113.61,-0.18,-0.3,-0.43,0.13,0.31,0.97,1000
16:08:52.749,17.54,-7.17,-113.62,-0.24,-0.24,-0.55,0.13,0.31,0.98,1000
16:08:52.755,17.54,-7.17,-113.62,-0.24,-0.18,-0.43,0.13,0.31,0.97,1000
16:08:52.756,17.54,-7.17,-113.62,-0.18,-0.3,-0.3,0.13,0.31,0.97,1000
16:08:52.756,17.54,-7.17,-113.62,-0.24,-0.37,-0.37,0.13,0.31,0.97,1000
16:08:52.758,17.54,-7.17,-113.62,-0.12,-0.18,-0.37,0.13,0.31,0.97,1000
16:08:52.762,17.54,-7.17,-113.62,-0.24,-0.24,-0.24,0.13,0.31,0.97,1000
