Timestamp,Roll,Pitch,Yaw,Gyro_X,Gyro_Y,Gyro_Z,Accel_X,Accel_Y,Accel_Z,Throttle
16:52:48.185,0.62,5.73,-107.79,0.85,-15.61,0.91,-0.11,-0.01,0.99,1000
16:52:48.196,0.58,5.61,-107.77,3.72,-9.27,1.22,-0.1,0.02,0.97,1000
16:52:48.207,0.67,5.59,-107.77,6.71,-5.18,-1.59,-0.13,0.08,0.94,1000
16:52:48.218,0.97,5.65,-107.81,9.02,-0.73,-6.04,-0.09,0.1,0.99,1000
16:52:48.231,1.35,5.68,-107.89,9.88,4.09,-8.9,-0.1,0.07,0.97,1000
16:52:48.240,1.66,5.75,-107.99,8.41,7.32,-9.27,-0.11,0.05,0.99,1000
16:52:48.254,1.82,5.87,-108.08,4.7,9.76,-6.52,-0.12,-0.01,0.98,1000
16:52:48.262,1.76,6.05,-108.13,0.3,10.79,-0.85,-0.15,-0.04,1.0,1000
16:52:48.273,1.55,6.3,-108.12,-4.45,10.91,3.41,-0.13,0.0,0.99,1000
16:52:48.286,1.36,6.48,-108.07,-8.35,9.15,5.67,-0.1,0.01,1.02,1000
16:52:48.295,1.23,6.58,-108.01,-11.1,5.79,5.79,-0.13,0.06,1.0,1000
16:52:48.306,1.17,6.64,-107.95,-13.48,2.07,4.51,-0.08,0.03,1.06,1000
16:52:48.325,1.04,6.51,-107.89,-15.18,1.04,6.04,-0.05,-0.01,1.06,1000
16:52:48.328,0.82,6.38,-107.82,-16.34,-0.43,8.78,-0.11,-0.04,1.03,1000
16:52:48.341,0.45,6.27,-107.7,-16.89,-2.62,11.77,-0.1,-0.06,1.03,1000
16:52:48.368,0.07,6.17,-107.56,-15.91,-4.02,14.39,-0.12,-0.07,1.04,1000
16:52:48.368,-0.3,6.13,-107.39,-13.54,-6.77,14.94,-0.13,-0.03,1.01,1000
16:52:48.372,-0.56,6.08,-107.24,-9.76,-9.33,13.6,-0.1,-0.04,1.04,1000
16:52:48.386,-0.77,5.99,-107.1,-5.0,-10.67,11.71,-0.12,-0.03,1.02,1000
16:52:48.399,-0.87,5.91,-106.98,-0.49,-12.68,8.72,-0.11,-0.02,1.01,1000
16:52:48.405,-0.88,5.79,-106.9,2.87,-11.95,5.67,-0.09,-0.01,1.03,1000
16:52:48.432,-0.85,5.65,-106.85,4.7,-10.67,3.35,-0.09,-0.01,1.0,1000
16:52:48.432,-0.8,5.54,-106.82,5.06,-7.01,1.52,-0.09,-0.02,1.04,1000
16:52:48.447,-0.77,5.44,-106.81,4.39,-2.99,1.59,-0.06,-0.04,1.01,1000
16:52:48.449,-0.79,5.35,-106.79,3.6,0.0,1.34,-0.08,-0.03,1.03,1000
16:52:48.465,-0.81,5.32,-106.78,3.41,3.29,0.0,-0.1,-0.0,1.02,1000
16:52:48.476,-0.74,5.35,-106.8,3.84,3.54,-3.41,-0.1,0.04,1.02,1000
16:52:48.485,-0.57,5.41,-106.86,4.63,2.62,-7.8,-0.13,0.06,1.04,1000
16:52:48.496,-0.31,5.5,-106.96,5.49,2.99,-11.04,-0.11,0.04,1.07,1000
16:52:48.504,-0.12,5.56,-107.09,4.88,3.11,-11.89,-0.1,0.01,1.04,1000
16:52:48.515,0.0,5.65,-107.22,3.6,2.8,-10.49,-0.14,-0.02,1.05,1000
16:52:48.526,0.01,5.81,-107.32,2.26,2.74,-7.68,-0.14,-0.02,1.03,1000
16:52:48.539,-0.02,5.97,-107.39,1.1,1.22,-6.04,-0.14,0.01,1.02,1000
16:52:48.548,-0.0,6.1,-107.46,0.67,0.06,-5.61,-0.12,0.02,1.03,1000
16:52:48.562,0.03,6.14,-107.52,0.73,-0.91,-5.24,-0.1,0.0,1.02,1000
16:52:48.570,0.06,6.11,-107.58,1.22,-2.93,-5.49,-0.11,0.03,1.0,1000
16:52:48.581,0.18,6.06,-107.64,1.65,-3.96,-6.95,-0.09,0.03,1.01,1000
16:52:48.593,0.31,5.97,-107.72,1.04,-5.06,-7.32,-0.1,0.03,1.0,1000
16:52:48.603,0.39,5.91,-107.8,0.43,-4.39,-7.01,-0.1,0.01,1.03,1000
16:52:48.614,0.39,5.84,-107.86,-1.1,-1.77,-3.96,-0.1,-0.03,1.02,1000
16:52:48.627,0.25,5.81,-107.89,-2.26,0.12,0.12,-0.11,-0.05,1.01,1000
16:52:48.636,0.05,5.82,-107.87,-2.87,1.71,3.23,-0.1,-0.03,1.02,1000
16:52:48.647,-0.12,5.83,-107.82,-2.56,2.44,5.0,-0.09,-0.03,1.02,1000
16:52:48.658,-0.23,5.83,-107.77,-1.22,2.8,4.94,-0.09,0.0,1.03,1000
16:52:48.672,-0.26,5.81,-107.72,-0.12,1.77,3.9,-0.1,0.01,1.01,1000
16:52:48.681,-0.21,5.8,-107.69,1.34,-0.67,1.46,-0.11,0.05,1.03,1000
16:52:48.695,-0.13,5.78,-107.68,2.07,-2.26,0.12,-0.07,-0.01,1.05,1000
16:52:48.703,-0.09,5.66,-107.67,2.01,-1.89,2.44,-0.07,-0.04,1.05,1000
16:52:48.713,-0.16,5.58,-107.63,1.52,-1.46,5.49,-0.12,-0.06,1.03,1000
16:52:48.724,-0.3,5.56,-107.56,1.34,-0.67,7.74,-0.08,-0.04,1.04,1000
16:52:48.735,-0.44,5.53,-107.46,1.95,0.43,8.6,-0.15,-0.01,1.01,1000
16:52:48.746,-0.44,5.61,-107.38,2.5,0.18,5.55,-0.1,0.05,1.03,1000
16:52:48.757,-0.29,5.59,-107.34,2.74,-0.37,2.26,-0.05,0.01,1.04,1000
16:52:48.771,-0.2,5.52,-107.32,3.23,0.37,1.04,-0.11,-0.02,1.07,1000
16:52:48.780,-0.18,5.52,-107.31,3.84,-0.3,0.3,-0.12,0.0,1.01,1000
16:52:48.790,-0.14,5.54,-107.32,4.27,-0.85,-1.52,-0.1,0.0,1.07,1000
16:52:48.801,-0.09,5.56,-107.34,4.76,-1.95,-3.48,-0.13,0.01,1.0,1000
16:52:48.813,0.0,5.58,-107.39,4.63,-3.48,-6.34,-0.09,0.03,1.06,1000
16:52:48.823,0.13,5.53,-107.47,4.45,-3.48,-8.23,-0.1,0.0,1.03,1000
16:52:48.834,0.21,5.49,-107.57,3.96,-3.72,-8.96,-0.11,0.01,1.04,1000
16:52:48.846,0.29,5.48,-107.67,3.54,-3.05,-9.63,-0.11,0.03,1.02,1000
16:52:48.856,0.38,5.47,-107.78,3.48,-2.5,-10.37,-0.1,0.02,1.03,1000
16:52:48.874,0.46,5.47,-107.89,3.29,-1.4,-10.06,-0.11,0.01,1.0,1000
16:52:48.879,0.52,5.5,-108.0,3.29,-0.06,-9.63,-0.1,0.0,1.02,1000
16:52:48.889,0.55,5.52,-108.1,3.72,1.83,-8.48,-0.09,-0.01,1.01,1000
16:52:48.900,0.53,5.52,-108.19,5.3,2.87,-6.83,-0.08,-0.01,1.0,1000
16:52:48.912,0.5,5.52,-108.26,7.62,3.84,-5.73,-0.1,-0.03,1.01,1000
16:52:48.922,0.47,5.52,-108.32,10.79,5.06,-4.57,-0.07,-0.03,1.02,1000
16:52:48.938,0.46,5.53,-108.36,14.57,3.35,-4.21,-0.13,-0.01,0.98,1000
16:52:48.945,0.56,5.6,-108.42,17.93,0.98,-6.89,-0.11,0.06,1.02,1000
16:52:48.955,0.86,5.58,-108.52,21.28,-0.06,-11.04,-0.04,0.05,1.04,1000
16:52:48.972,1.2,5.45,-108.66,22.56,0.0,-13.41,-0.11,0.06,1.04,1000
16:52:48.981,1.56,5.44,-108.82,20.73,-0.49,-15.85,-0.12,0.09,1.01,1000
16:52:48.988,1.93,5.46,-109.0,15.18,2.38,-16.34,-0.07,0.06,1.06,1000
16:52:48.999,2.16,5.49,-109.16,7.93,7.13,-13.66,-0.15,0.03,1.02,1000
16:52:49.011,2.17,5.71,-109.29,-0.67,9.88,-8.78,-0.15,0.01,1.02,1000
16:52:49.023,2.06,5.96,-109.37,-7.8,12.8,-4.88,-0.14,0.02,1.02,1000
16:52:49.036,1.89,6.24,-109.41,-12.93,13.48,-2.44,-0.15,0.03,1.01,1000
16:52:49.043,1.72,6.5,-109.43,-14.76,12.2,-1.77,-0.11,0.04,1.04,1000
16:52:49.055,1.58,6.66,-109.45,-13.48,9.82,-2.56,-0.13,0.03,1.04,1000
16:52:49.065,1.48,6.76,-109.49,-10.3,5.79,-3.96,-0.11,0.05,1.05,1000
16:52:49.079,1.45,6.78,-109.54,-6.28,1.16,-5.79,-0.11,0.04,1.04,1000
16:52:49.087,1.46,6.74,-109.61,-1.89,-3.11,-7.32,-0.12,0.03,1.05,1000
16:52:49.098,1.48,6.66,-109.7,0.91,-6.4,-7.32,-0.11,0.01,1.03,1000
16:52:49.109,1.45,6.57,-109.77,2.62,-7.62,-5.67,-0.13,-0.0,1.04,1000
16:52:49.120,1.39,6.51,-109.82,3.11,-7.44,-3.48,-0.14,0.01,1.01,1000
16:52:49.141,1.36,6.5,-109.85,2.44,-7.93,-2.74,-0.14,0.05,1.0,1000
16:52:49.145,1.4,6.48,-109.88,1.59,-8.9,-3.11,-0.15,0.05,1.01,1000
16:52:49.155,1.44,6.47,-109.92,0.37,-6.95,-2.13,-0.11,0.02,1.04,1000
16:52:49.164,1.43,6.42,-109.93,-0.18,-5.79,-1.28,-0.13,0.02,1.01,1000
16:52:49.181,1.41,6.37,-109.95,-0.67,-5.24,-0.73,-0.09,0.02,1.01,1000
16:52:49.186,1.4,6.27,-109.95,-0.3,-3.66,-0.67,-0.08,0.03,1.02,1000
16:52:49.197,1.42,6.15,-109.97,0.79,-1.95,-1.46,-0.09,0.05,1.01,1000
16:52:49.208,1.49,6.05,-109.99,2.01,-0.67,-2.68,-0.07,0.03,1.02,1000
16:52:49.219,1.55,5.94,-110.02,3.96,1.4,-3.17,-0.09,0.02,1.03,1000
16:52:49.230,1.6,5.91,-110.06,5.73,2.44,-4.21,-0.12,0.03,1.02,1000
16:52:49.241,1.73,5.98,-110.12,6.95,1.34,-6.28,-0.16,0.09,1.01,1000
16:52:49.252,2.01,6.11,-110.21,7.2,-0.61,-10.3,-0.13,0.11,1.03,1000
16:52:49.263,2.31,6.18,-110.33,6.34,-0.91,-11.65,-0.12,0.06,1.05,1000
16:52:49.283,2.49,6.22,-110.45,4.51,-1.52,-10.24,-0.13,0.04,1.03,1000
16:52:49.285,2.54,6.29,-110.55,1.65,-1.83,-7.56,-0.13,0.02,1.04,1000
16:52:49.296,2.48,6.35,-110.62,-1.52,-1.04,-4.21,-0.12,0.02,1.03,1000
16:52:49.309,2.37,6.39,-110.65,-4.09,-0.06,-1.59,-0.12,0.03,1.02,1000
16:52:49.321,2.27,6.41,-110.66,-5.91,0.37,-0.61,-0.11,0.04,1.02,1000
16:52:49.329,2.19,6.4,-110.66,-7.2,0.55,-0.37,-0.09,0.04,1.03,1000
16:52:49.340,2.11,6.34,-110.66,-7.56,0.61,-0.24,-0.1,0.03,1.02,1000
16:52:49.351,2.0,6.28,-110.66,-7.56,-0.06,-0.18,-0.11,0.03,1.01,1000
16:52:49.363,1.92,6.23,-110.67,-6.59,-0.43,-1.1,-0.09,0.04,1.02,1000
16:52:49.380,1.86,6.16,-110.68,-5.85,-1.1,-1.28,-0.1,0.02,1.01,1000
16:52:49.386,1.77,6.1,-110.69,-4.76,-1.4,-0.12,-0.11,-0.0,1.02,1000
16:52:49.395,1.63,6.07,-110.68,-3.72,-1.65,1.28,-0.11,0.0,1.01,1000
16:52:49.406,1.5,6.05,-110.66,-2.5,-1.89,2.07,-0.11,-0.0,1.02,1000
16:52:49.420,1.37,6.03,-110.64,-1.77,-2.87,2.99,-0.11,0.01,1.01,1000
16:52:49.428,1.31,6.01,-110.61,-1.46,-4.88,2.44,-0.11,0.02,1.01,1000
16:52:49.439,1.25,5.95,-110.58,-2.26,-5.73,2.38,-0.09,0.01,1.03,1000
16:52:49.452,1.17,5.83,-110.55,-3.66,-6.22,2.8,-0.1,0.0,1.01,1000
16:52:49.461,1.07,5.74,-110.51,-5.12,-7.07,3.23,-0.11,0.01,0.99,1000
16:52:49.474,0.98,5.64,-110.48,-6.1,-7.32,2.26,-0.08,0.04,1.0,1000
16:52:49.483,0.96,5.5,-110.47,-6.95,-7.56,0.61,-0.06,0.03,0.99,1000
16:52:49.494,0.92,5.34,-110.47,-7.8,-6.89,-0.12,-0.07,0.02,0.99,1000
16:52:49.505,0.86,5.17,-110.47,-8.96,-5.55,-0.18,-0.06,0.02,0.98,1000
16:52:49.516,0.77,5.01,-110.47,-10.49,-3.11,0.12,-0.06,0.01,0.98,1000
16:52:49.527,0.64,4.9,-110.46,-11.71,-0.73,1.28,-0.08,0.0,0.97,1000
16:52:49.538,0.49,4.86,-110.45,-12.01,2.2,1.65,-0.08,0.0,0.99,1000
16:52:49.549,0.35,4.87,-110.43,-11.4,4.76,2.01,-0.09,0.01,0.97,1000
16:52:49.563,0.24,4.94,-110.41,-10.24,7.01,1.59,-0.08,0.01,1.0,1000
16:52:49.572,0.16,4.99,-110.39,-8.41,9.09,1.1,-0.07,0.0,1.0,1000
16:52:49.582,0.08,5.03,-110.38,-6.95,10.79,1.22,-0.06,-0.02,1.03,1000
16:52:49.593,-0.04,5.05,-110.36,-4.82,12.5,1.95,-0.07,-0.02,1.03,1000
16:52:49.604,-0.14,5.08,-110.34,-2.2,13.48,2.32,-0.08,-0.02,1.04,1000
16:52:49.615,-0.22,5.15,-110.31,0.3,12.93,1.71,-0.1,-0.0,1.04,1000
16:52:49.626,-0.21,5.27,-110.31,3.35,11.4,-0.24,-0.11,0.02,1.05,1000
16:52:49.638,-0.12,5.4,-110.32,6.28,9.21,-2.38,-0.11,0.01,1.06,1000
16:52:49.648,-0.0,5.52,-110.36,9.09,6.4,-4.09,-0.13,-0.0,1.06,1000
16:52:49.659,0.13,5.67,-110.41,11.04,3.54,-5.79,-0.14,0.02,1.05,1000
16:52:49.672,0.31,5.8,-110.48,11.83,1.22,-7.74,-0.14,0.03,1.06,1000
16:52:49.682,0.52,5.91,-110.58,11.71,-1.65,-10.06,-0.15,0.06,1.04,1000
16:52:49.699,0.78,6.01,-110.7,10.12,-4.39,-12.44,-0.14,0.05,1.05,1000
16:52:49.703,1.0,6.06,-110.84,8.29,-3.29,-12.07,-0.11,0.02,1.08,1000
16:52:49.717,1.1,6.07,-110.96,6.71,-2.5,-10.37,-0.14,0.0,1.04,1000
16:52:49.726,1.13,6.08,-111.06,5.49,-2.74,-8.66,-0.12,-0.0,1.05,1000
16:52:49.737,1.15,6.09,-111.15,4.94,-2.44,-7.93,-0.12,0.03,1.04,1000
16:52:49.747,1.21,6.1,-111.25,6.04,-3.41,-8.66,-0.13,0.04,1.03,1000
16:52:49.759,1.33,6.12,-111.35,7.68,-4.39,-10.12,-0.12,0.05,1.04,1000
16:52:49.771,1.48,6.11,-111.47,8.78,-6.28,-11.22,-0.13,0.04,1.02,1000
16:52:49.780,1.64,6.11,-111.59,9.21,-8.29,-11.65,-0.12,0.05,1.02,1000
16:52:49.794,1.82,6.09,-111.72,8.66,-10.0,-11.52,-0.12,0.05,0.99,1000
16:52:49.803,1.97,6.05,-111.84,7.07,-11.04,-10.24,-0.13,0.05,0.98,1000
16:52:49.813,2.09,6.03,-111.94,4.57,-10.91,-7.99,-0.14,0.04,0.96,1000
16:52:49.824,2.14,6.06,-112.02,1.1,-10.98,-5.0,-0.14,0.02,0.95,1000
16:52:49.837,2.1,6.11,-112.05,-3.29,-9.39,-0.98,-0.12,0.02,0.95,1000
16:52:49.846,1.99,6.08,-112.05,-7.56,-5.73,3.11,-0.05,0.01,0.96,1000
16:52:49.857,1.8,5.88,-111.99,-10.61,0.12,6.83,0.0,-0.01,0.99,1000
16:52:49.870,1.54,5.55,-111.89,-12.01,7.44,11.1,0.03,-0.02,1.01,1000
16:52:49.880,1.25,5.22,-111.76,-10.85,14.45,13.9,0.03,-0.03,1.03,1000
16:52:49.902,0.99,4.98,-111.6,-7.26,19.7,15.37,-0.03,-0.01,1.04,1000
16:52:49.902,0.82,4.92,-111.43,-1.1,21.83,14.39,-0.08,0.01,1.06,1000
16:52:49.912,0.79,5.04,-111.28,5.73,17.8,11.77,-0.17,0.04,1.01,1000
16:52:49.923,0.96,5.42,-111.18,12.56,10.18,6.59,-0.2,0.06,1.08,1000
16:52:49.934,1.22,5.75,-111.12,16.52,2.38,4.02,-0.16,0.02,1.07,1000
16:52:49.945,1.41,6.02,-111.08,17.68,-4.33,3.54,-0.22,-0.0,1.08,1000
16:52:49.958,1.52,6.29,-111.04,15.91,-10.55,3.96,-0.17,0.01,1.02,1000
16:52:49.968,1.6,6.38,-110.99,11.28,-13.96,3.84,-0.12,0.02,1.06,1000
16:52:49.978,1.64,6.34,-110.95,5.67,-13.41,3.84,-0.12,0.03,1.01,1000
16:52:49.995,1.63,6.23,-110.91,0.67,-11.34,3.05,-0.06,0.03,1.02,1000
16:52:50.001,1.6,6.04,-110.89,-3.78,-6.34,1.4,-0.09,0.04,1.0,1000
16:52:50.011,1.59,5.92,-110.89,-6.83,-3.11,-1.65,-0.1,0.07,0.98,1000
16:52:50.022,1.63,5.86,-110.93,-8.6,0.24,-5.49,-0.08,0.07,1.01,1000
16:52:50.035,1.68,5.84,-111.0,-8.66,4.21,-7.99,-0.12,0.04,1.01,1000
16:52:50.044,1.65,5.91,-111.09,-8.41,5.98,-8.54,-0.12,0.01,1.0,1000
16:52:50.055,1.55,6.04,-111.18,-7.74,7.56,-7.68,-0.13,0.0,1.02,1000
16:52:50.069,1.42,6.2,-111.26,-6.52,8.48,-6.65,-0.13,0.01,0.99,1000
16:52:50.077,1.29,6.35,-111.33,-5.24,8.66,-5.73,-0.11,0.01,1.02,1000
16:52:50.088,1.19,6.45,-111.39,-3.23,9.63,-5.3,-0.1,0.01,1.01,1000
16:52:50.103,1.12,6.52,-111.45,-1.34,9.33,-5.06,-0.1,0.02,1.01,1000
16:52:50.110,1.1,6.58,-111.5,0.73,8.23,-5.49,-0.11,0.04,1.02,1000
16:52:50.121,1.16,6.64,-111.57,2.62,7.01,-6.65,-0.14,0.05,1.0,1000
16:52:50.133,1.33,6.77,-111.65,3.17,2.38,-8.84,-0.16,0.09,1.01,1000
16:52:50.143,1.52,6.86,-111.75,2.74,-0.43,-9.27,-0.09,0.04,1.06,1000
16:52:50.211,1.64,6.81,-111.84,1.95,-0.3,-6.4,-0.13,0.01,1.05,1000
16:52:50.211,1.61,6.8,-111.89,0.37,-1.77,-1.83,-0.13,-0.0,1.01,1000
16:52:50.213,1.5,6.79,-111.89,-1.28,-0.67,2.07,-0.1,-0.0,1.05,1000
16:52:50.213,1.4,6.75,-111.85,-2.01,2.01,5.24,-0.12,0.02,1.01,1000
16:52:50.213,1.34,6.75,-111.78,-1.52,4.51,6.95,-0.1,0.03,1.04,1000
16:52:50.213,1.33,6.78,-111.71,0.18,8.6,7.56,-0.14,0.03,1.02,1000
16:52:50.220,1.35,6.92,-111.62,2.5,8.35,7.32,-0.2,0.06,0.97,1000
16:52:50.231,1.49,7.18,-111.56,4.27,8.11,4.76,-0.16,0.08,1.03,1000
16:52:50.242,1.68,7.4,-111.51,5.43,7.74,3.66,-0.15,0.03,1.01,1000
16:52:50.255,1.79,7.62,-111.47,5.61,6.89,4.57,-0.17,0.01,1.04,1000
16:52:50.267,1.8,7.81,-111.41,4.57,6.1,6.34,-0.14,0.02,1.01,1000
16:52:50.275,1.79,7.91,-111.34,2.68,4.76,7.68,-0.13,0.01,1.03,1000
16:52:50.288,1.73,7.96,-111.25,0.43,4.15,8.54,-0.14,0.01,1.02,1000
16:52:50.307,1.64,7.98,-111.15,-2.2,2.44,8.66,-0.13,0.02,1.02,1000
16:52:50.308,1.56,7.95,-111.06,-4.7,1.59,7.74,-0.13,0.03,1.04,1000
16:52:50.320,1.49,7.92,-110.98,-6.59,-0.18,6.04,-0.13,0.03,1.03,1000
16:52:50.330,1.44,7.89,-110.92,-8.35,-3.66,4.45,-0.16,0.04,1.03,1000
16:52:50.342,1.39,7.88,-110.88,-9.57,-4.88,2.99,-0.14,0.03,1.07,1000
16:52:50.352,1.26,7.8,-110.85,-10.37,-5.12,3.78,-0.14,-0.02,1.05,1000
16:52:50.363,1.03,7.75,-110.8,-10.79,-5.73,5.67,-0.16,-0.03,1.05,1000
16:52:50.374,0.75,7.74,-110.73,-10.06,-5.61,7.13,-0.13,-0.03,1.04,1000
16:52:50.389,0.49,7.69,-110.65,-7.87,-4.7,7.68,-0.14,-0.02,1.04,1000
16:52:50.396,0.34,7.66,-110.57,-5.12,-5.3,5.73,-0.14,0.04,1.02,1000
16:52:50.410,0.34,7.59,-110.52,-2.01,-5.0,2.8,-0.1,0.02,1.06,1000
16:52:50.418,0.35,7.47,-110.5,0.73,-2.93,1.71,-0.12,-0.01,1.04,1000
16:52:50.429,0.33,7.38,-110.48,1.95,-2.26,1.46,-0.13,-0.0,1.02,1000
16:52:50.460,0.32,7.34,-110.46,2.01,-2.68,0.98,-0.13,0.0,1.03,1000
16:52:50.461,0.31,7.3,-110.45,1.65,-2.07,1.34,-0.13,-0.01,1.05,1000
16:52:50.464,0.26,7.28,-110.43,1.28,-1.34,2.5,-0.15,-0.02,1.04,1000
16:52:50.479,0.18,7.28,-110.4,1.4,-2.13,2.5,-0.14,-0.0,1.02,1000
16:52:50.484,0.15,7.28,-110.38,1.71,-3.41,0.79,-0.14,0.02,1.02,1000
16:52:50.495,0.25,7.24,-110.39,1.83,-4.82,-2.44,-0.12,0.06,1.03,1000
16:52:50.513,0.42,7.16,-110.43,1.16,-6.59,-5.55,-0.12,0.04,1.02,1000
16:52:50.517,0.55,7.07,-110.5,0.18,-6.83,-6.95,-0.12,0.03,1.05,1000
16:52:50.528,0.61,6.94,-110.58,-1.04,-6.89,-6.28,-0.09,0.01,1.02,1000
16:52:50.539,0.59,6.81,-110.64,-2.74,-5.79,-4.51,-0.13,-0.01,1.03,1000
16:52:50.550,0.5,6.74,-110.68,-3.72,-4.21,-2.93,-0.12,-0.0,1.0,1000
16:52:50.561,0.42,6.67,-110.71,-3.54,-3.05,-2.01,-0.1,0.01,1.01,1000
16:52:50.572,0.39,6.62,-110.73,-2.26,-1.22,-2.62,-0.12,0.01,1.0,1000
16:52:50.585,0.38,6.59,-110.76,-0.43,0.98,-3.17,-0.11,0.01,1.0,1000
16:52:50.595,0.42,6.61,-110.8,1.34,2.56,-4.7,-0.12,0.03,0.99,1000
16:52:50.615,0.52,6.65,-110.86,2.74,3.11,-6.52,-0.09,0.04,1.0,1000
16:52:50.616,0.66,6.64,-110.94,4.21,3.84,-8.05,-0.12,0.05,1.0,1000
16:52:50.628,0.86,6.65,-111.04,4.76,3.96,-10.18,-0.11,0.06,1.01,1000
16:52:50.638,1.04,6.65,-111.16,4.33,4.27,-10.37,-0.1,0.02,1.04,1000
16:52:50.649,1.13,6.66,-111.26,3.41,4.33,-8.11,-0.14,0.0,1.02,1000
16:52:50.660,1.14,6.74,-111.34,1.83,3.6,-5.85,-0.13,0.01,1.02,1000
16:52:50.671,1.12,6.79,-111.39,0.37,2.8,-3.96,-0.12,0.02,1.03,1000
16:52:50.682,1.1,6.82,-111.43,-0.12,2.26,-2.8,-0.13,0.02,1.03,1000
16:52:50.694,1.08,6.86,-111.46,-0.24,1.4,-2.32,-0.12,0.02,1.03,1000
16:52:50.707,1.09,6.86,-111.48,0.55,1.04,-2.56,-0.12,0.03,1.03,1000
16:52:50.721,1.13,6.84,-111.52,1.34,0.73,-3.41,-0.13,0.04,1.01,1000
16:52:50.727,1.23,6.84,-111.56,1.89,-1.22,-5.73,-0.12,0.09,1.01,1000
16:52:50.739,1.43,6.83,-111.64,1.65,-2.93,-8.17,-0.11,0.06,1.04,1000
16:52:50.748,1.57,6.79,-111.73,0.55,-1.89,-7.26,-0.12,0.03,1.05,1000
16:52:50.759,1.61,6.76,-111.8,-0.79,-0.98,-4.76,-0.13,0.01,1.02,1000
16:52:50.770,1.54,6.77,-111.83,-2.32,-0.55,-1.65,-0.12,-0.0,1.03,1000
16:52:50.783,1.43,6.79,-111.84,-3.35,1.04,0.91,-0.14,0.0,1.02,1000
16:52:50.794,1.35,6.84,-111.82,-3.29,1.16,2.2,-0.13,0.03,1.02,1000
16:52:50.803,1.33,6.87,-111.8,-1.95,0.98,1.71,-0.11,0.04,1.02,1000
16:52:50.821,1.39,6.86,-111.79,-0.37,-0.55,-0.3,-0.12,0.08,1.02,1000
16:52:50.825,1.52,6.83,-111.8,0.91,-2.5,-2.01,-0.12,0.05,1.04,1000
16:52:50.839,1.61,6.76,-111.83,0.79,-2.74,-1.77,-0.12,0.02,1.06,1000
16:52:50.849,1.62,6.71,-111.84,0.55,-2.68,-0.24,-0.12,0.01,1.02,1000
16:52:50.858,1.58,6.68,-111.83,-0.37,-2.56,1.52,-0.11,0.0,1.04,1000
16:52:50.869,1.51,6.64,-111.81,-0.73,-0.85,2.56,-0.12,0.01,1.02,1000
16:52:50.880,1.44,6.62,-111.78,0.0,1.22,2.87,-0.1,0.01,1.02,1000
16:52:50.891,1.4,6.6,-111.75,1.22,3.9,2.5,-0.1,0.02,1.01,1000
16:52:50.902,1.37,6.6,-111.72,2.56,6.83,1.71,-0.11,0.01,1.0,1000
16:52:50.925,1.38,6.67,-111.71,3.9,8.54,-0.06,-0.14,0.04,0.99,1000
16:52:50.925,1.48,6.79,-111.72,4.94,9.33,-2.5,-0.1,0.04,1.0,1000
16:52:50.935,1.59,6.86,-111.76,5.61,10.0,-4.82,-0.12,0.04,1.02,1000
16:52:50.946,1.69,6.95,-111.83,5.98,8.96,-6.16,-0.13,0.02,1.02,1000
16:52:50.959,1.74,7.04,-111.89,5.98,8.23,-6.28,-0.14,0.0,1.04,1000
16:52:50.968,1.73,7.16,-111.96,5.61,5.43,-5.98,-0.16,0.01,1.02,1000
16:52:50.982,1.7,7.3,-112.03,5.0,1.1,-6.46,-0.15,0.02,1.04,1000
16:52:50.990,1.71,7.36,-112.11,4.09,-2.2,-7.93,-0.13,0.03,1.06,1000
16:52:51.001,1.74,7.34,-112.19,2.99,-6.34,-8.84,-0.15,0.04,1.03,1000
16:52:51.024,1.78,7.26,-112.3,1.46,-9.02,-9.45,-0.1,0.03,1.08,1000
16:52:51.026,1.77,7.05,-112.4,0.06,-9.02,-8.54,-0.09,0.01,1.04,1000
16:52:51.034,1.71,6.88,-112.48,-1.46,-9.27,-7.13,-0.11,0.0,1.04,1000
16:52:51.045,1.6,6.71,-112.56,-2.5,-8.41,-5.37,-0.11,0.01,1.03,1000
16:52:51.058,1.49,6.59,-112.61,-2.44,-6.95,-4.51,-0.13,0.01,1.02,1000
16:52:51.067,1.42,6.56,-112.66,-1.22,-5.73,-4.45,-0.14,0.02,1.01,1000
16:52:51.078,1.4,6.57,-112.71,0.79,-4.63,-5.24,-0.13,0.04,1.0,1000
16:52:51.090,1.45,6.59,-112.77,2.87,-4.09,-6.46,-0.14,0.05,0.99,1000
16:52:51.102,1.56,6.63,-112.85,5.0,-3.72,-7.8,-0.13,0.06,0.98,1000
16:52:51.111,1.74,6.65,-112.95,5.79,-2.56,-9.94,-0.1,0.08,1.01,1000
16:52:51.127,1.95,6.6,-113.06,4.82,-0.67,-10.24,-0.08,0.05,1.0,1000
16:52:51.133,2.07,6.54,-113.17,3.05,2.2,-8.72,-0.12,0.02,1.03,1000
16:52:51.144,2.08,6.56,-113.25,1.34,4.45,-6.34,-0.13,0.03,1.0,1000
16:52:51.157,2.06,6.66,-113.31,0.3,5.37,-4.76,-0.14,0.04,1.02,1000
16:52:51.166,2.07,6.79,-113.36,0.43,5.3,-4.7,-0.15,0.05,1.01,1000
16:52:51.177,2.12,6.93,-113.42,1.4,3.48,-5.49,-0.13,0.05,1.02,1000
16:52:51.188,2.2,7.02,-113.49,2.87,0.79,-6.52,-0.14,0.05,1.01,1000
16:52:51.201,2.29,7.09,-113.56,4.76,-2.26,-8.05,-0.14,0.06,1.0,1000
16:52:51.210,2.41,7.11,-113.66,6.16,-5.79,-9.88,-0.14,0.08,0.99,1000
16:52:51.223,2.59,7.1,-113.78,6.83,-8.35,-12.07,-0.13,0.08,1.0,1000
16:52:51.233,2.79,7.05,-113.92,5.91,-10.67,-13.6,-0.12,0.09,0.98,1000
16:52:51.243,3.01,6.99,-114.07,3.54,-14.27,-14.51,-0.13,0.11,0.98,1000
16:52:51.255,3.24,6.85,-114.23,0.67,-13.23,-14.45,-0.05,0.1,1.06,1000
16:52:51.265,3.36,6.56,-114.38,-3.54,-8.54,-11.28,-0.04,0.05,1.04,1000
16:52:51.276,3.3,6.25,-114.48,-7.44,-5.3,-5.98,-0.1,0.0,1.05,1000
16:52:51.289,3.06,6.09,-114.51,-10.12,-0.91,0.37,-0.11,0.0,1.04,1000
16:52:51.300,2.8,6.07,-114.49,-10.06,3.05,4.15,-0.15,0.01,1.04,1000
16:52:51.309,2.56,6.2,-114.43,-7.44,5.3,6.95,-0.16,0.01,1.03,1000
16:52:51.320,2.38,6.38,-114.35,-2.99,6.28,7.07,-0.15,0.04,1.02,1000
16:52:51.331,2.35,6.58,-114.28,1.65,6.22,4.94,-0.14,0.06,1.03,1000
16:52:51.343,2.42,6.75,-114.23,5.91,3.78,2.62,-0.15,0.07,1.0,1000
16:52:51.353,2.57,6.87,-114.22,8.84,2.26,0.06,-0.13,0.06,1.04,1000
16:52:51.364,2.71,6.89,-114.22,8.96,1.46,-0.06,-0.09,0.03,1.01,1000
16:52:51.376,2.73,6.82,-114.21,6.77,0.98,2.07,-0.09,0.0,1.03,1000
16:52:51.386,2.66,6.72,-114.17,3.23,1.95,5.0,-0.07,0.0,1.01,1000
16:52:51.397,2.51,6.56,-114.11,-0.61,3.48,7.26,-0.06,0.01,1.03,1000
16:52:51.409,2.34,6.41,-114.02,-3.48,5.12,8.66,-0.09,0.02,1.02,1000
16:52:51.419,2.18,6.33,-113.92,-4.7,5.49,8.23,-0.09,0.02,1.03,1000
16:52:51.436,2.05,6.29,-113.84,-3.78,5.24,6.83,-0.11,0.03,1.03,1000
16:52:51.441,1.98,6.31,-113.77,-1.95,3.6,4.39,-0.13,0.04,1.02,1000
16:52:51.454,1.96,6.36,-113.74,0.24,1.52,1.16,-0.13,0.04,1.03,1000
16:52:51.463,1.98,6.41,-113.74,2.38,-0.06,-1.34,-0.13,0.04,1.02,1000
16:52:51.474,2.02,6.45,-113.77,4.15,-0.91,-4.02,-0.12,0.03,1.03,1000
16:52:51.485,2.05,6.46,-113.82,5.37,-0.98,-5.3,-0.12,0.04,1.02,1000
16:52:51.496,2.09,6.48,-113.89,5.73,-0.55,-6.95,-0.13,0.04,1.01,1000
16:52:51.508,2.19,6.51,-113.97,5.18,-0.06,-8.84,-0.11,0.07,1.01,1000
16:52:51.519,2.3,6.52,-114.08,3.72,0.49,-10.12,-0.11,0.05,1.01,1000
16:52:51.539,2.38,6.52,-114.19,1.65,2.07,-9.82,-0.11,0.05,1.01,1000
16:52:51.540,2.42,6.53,-114.28,-0.3,3.48,-9.02,-0.1,0.04,1.0,1000
16:52:51.551,2.41,6.55,-114.38,-2.38,5.18,-7.56,-0.12,0.04,1.02,1000
16:52:51.562,2.37,6.6,-114.46,-3.78,7.13,-6.28,-0.14,0.04,1.0,1000
16:52:51.573,2.32,6.72,-114.52,-4.21,8.48,-5.55,-0.14,0.05,1.02,1000
16:52:51.584,2.3,6.88,-114.58,-4.09,8.23,-5.3,-0.17,0.07,1.0,1000
16:52:51.596,2.41,7.12,-114.65,-3.78,3.17,-7.44,-0.18,0.13,1.02,1000
16:52:51.606,2.59,7.25,-114.74,-2.68,0.91,-8.54,-0.1,0.07,1.11,1000
16:52:51.619,2.67,7.24,-114.82,-1.4,-1.04,-6.16,-0.17,0.03,1.07,1000
16:52:51.638,2.63,7.26,-114.87,-0.98,-5.85,-1.65,-0.16,-0.0,1.07,1000
16:52:51.640,2.49,7.24,-114.86,-0.12,-9.09,3.17,-0.14,-0.0,1.08,1000
16:52:51.653,2.35,7.18,-114.81,2.01,-11.65,6.28,-0.16,0.01,1.05,1000
16:52:51.661,2.27,7.14,-114.73,4.76,-14.94,7.44,-0.14,0.04,1.03,1000
16:52:51.674,2.29,7.03,-114.66,7.38,-15.91,6.1,-0.13,0.06,1.04,1000
16:52:51.683,2.41,6.89,-114.6,8.84,-15.49,4.57,-0.14,0.06,1.01,1000
16:52:51.694,2.58,6.79,-114.56,8.17,-15.18,2.44,-0.13,0.08,1.0,1000
16:52:51.706,2.77,6.71,-114.54,5.43,-13.6,0.98,-0.13,0.07,0.99,1000
16:52:51.717,2.9,6.65,-114.53,1.22,-10.24,1.04,-0.13,0.05,1.0,1000
16:52:51.727,2.9,6.64,-114.51,-3.48,-5.85,2.74,-0.14,0.03,0.99,1000
16:52:51.741,2.78,6.68,-114.47,-7.44,-1.89,5.18,-0.12,0.02,0.99,1000
16:52:51.749,2.61,6.72,-114.4,-10.24,1.4,6.59,-0.11,0.04,0.99,1000
16:52:51.760,2.46,6.74,-114.33,-10.67,2.87,6.28,-0.1,0.04,1.0,1000
16:52:51.771,2.33,6.71,-114.26,-9.33,3.23,6.28,-0.09,0.03,1.02,1000
16:52:51.783,2.19,6.65,-114.19,-7.32,2.68,6.28,-0.09,0.02,1.02,1000
16:52:51.793,2.04,6.57,-114.12,-4.51,1.28,6.71,-0.09,0.0,1.02,1000
16:52:51.804,1.9,6.46,-114.05,-1.46,-0.37,6.65,-0.09,0.02,1.02,1000
16:52:51.815,1.83,6.36,-113.98,0.73,-2.74,5.67,-0.1,0.04,1.01,1000
16:52:51.827,1.85,6.26,-113.92,3.05,-4.15,4.09,-0.1,0.04,1.03,1000
16:52:51.845,1.9,6.18,-113.88,3.66,-6.04,3.29,-0.12,0.04,1.0,1000
16:52:51.848,1.95,6.13,-113.85,3.54,-7.38,3.11,-0.1,0.02,1.05,1000
16:52:51.859,1.94,6.02,-113.8,2.2,-6.83,5.0,-0.12,0.0,1.03,1000
16:52:51.870,1.84,5.97,-113.74,0.24,-6.22,6.65,-0.12,0.0,1.02,1000
16:52:51.883,1.72,5.92,-113.66,-1.59,-3.9,7.5,-0.08,0.02,1.03,1000
16:52:51.892,1.63,5.86,-113.58,-2.74,-1.59,6.52,-0.1,0.03,1.0,1000
16:52:51.904,1.57,5.82,-113.52,-2.74,0.67,4.76,-0.08,0.03,1.02,1000
16:52:51.914,1.54,5.77,-113.48,-2.13,2.87,2.32,-0.07,0.03,1.01,1000
16:52:51.925,1.52,5.73,-113.46,-0.98,3.78,0.06,-0.1,0.02,1.02,1000
16:52:51.946,1.51,5.73,-113.47,0.24,4.57,-2.87,-0.1,0.04,1.01,1000
16:52:51.947,1.54,5.76,-113.52,1.46,5.06,-5.49,-0.11,0.04,1.02,1000
16:52:51.959,1.58,5.82,-113.59,2.13,5.49,-7.38,-0.12,0.03,1.0,1000
16:52:51.969,1.65,5.9,-113.68,2.07,5.3,-9.82,-0.1,0.06,1.01,1000
16:52:51.980,1.74,5.94,-113.79,1.46,5.12,-11.34,-0.09,0.04,1.02,1000
16:52:51.991,1.79,5.97,-113.93,0.55,6.28,-11.22,-0.11,0.03,1.03,1000
16:52:52.002,1.8,6.01,-114.04,-0.61,6.04,-10.91,-0.1,0.04,1.01,1000
16:52:52.013,1.8,6.06,-114.17,-2.01,5.67,-10.67,-0.1,0.04,1.02,1000
16:52:52.025,1.82,6.1,-114.29,-3.17,5.0,-11.34,-0.11,0.06,1.02,1000
16:52:52.049,1.85,6.13,-114.41,-3.48,3.66,-11.4,-0.1,0.05,1.02,1000
16:52:52.050,1.88,6.16,-114.54,-2.56,2.8,-10.85,-0.13,0.04,1.03,1000
16:52:52.059,1.89,6.22,-114.65,-0.98,2.56,-10.12,-0.12,0.04,1.02,1000
16:52:52.068,1.91,6.27,-114.76,0.49,2.5,-9.15,-0.12,0.04,1.03,1000
16:52:52.079,1.94,6.32,-114.86,2.13,2.62,-8.6,-0.12,0.05,1.01,1000
16:52:52.090,2.01,6.35,-114.95,3.41,3.41,-9.15,-0.09,0.07,1.03,1000
16:52:52.101,2.17,6.35,-115.06,3.9,4.21,-9.88,-0.12,0.09,1.02,1000
16:52:52.115,2.4,6.39,-115.17,4.33,4.82,-10.91,-0.12,0.09,1.05,1000
16:52:52.126,2.59,6.46,-115.29,3.96,6.77,-10.3,-0.15,0.07,1.04,1000
16:52:52.134,2.74,6.62,-115.4,3.05,8.05,-9.21,-0.18,0.07,1.05,1000
16:52:52.152,2.87,6.92,-115.49,1.95,9.51,-7.2,-0.18,0.07,1.04,1000
16:52:52.156,2.95,7.19,-115.57,0.85,9.27,-6.1,-0.17,0.08,1.04,1000
16:52:52.167,3.05,7.44,-115.63,-0.24,7.26,-5.3,-0.15,0.09,1.03,1000
16:52:52.181,3.18,7.59,-115.69,-1.4,5.0,-5.98,-0.14,0.1,1.05,1000
16:52:52.189,3.32,7.65,-115.76,-2.68,2.01,-6.22,-0.13,0.09,1.03,1000
16:52:52.200,3.42,7.67,-115.82,-3.78,-1.28,-5.12,-0.15,0.07,1.05,1000
16:52:52.211,3.45,7.68,-115.87,-5.24,-3.17,-3.54,-0.16,0.06,1.02,1000
16:52:52.222,3.43,7.69,-115.9,-6.52,-5.12,-1.77,-0.15,0.07,1.03,1000
16:52:52.233,3.38,7.71,-115.91,-7.93,-6.16,0.0,-0.15,0.06,1.02,1000
16:52:52.247,3.32,7.69,-115.9,-8.6,-6.59,1.71,-0.14,0.04,1.02,1000
16:52:52.256,3.21,7.66,-115.88,-8.72,-6.04,3.41,-0.14,0.04,1.01,1000
16:52:52.266,3.12,7.63,-115.84,-8.84,-7.26,3.84,-0.12,0.09,0.99,1000
16:52:52.278,3.13,7.54,-115.8,-8.35,-7.56,2.5,-0.11,0.08,1.02,1000
16:52:52.288,3.14,7.43,-115.78,-8.17,-6.59,3.17,-0.13,0.05,1.0,1000
16:52:52.299,3.04,7.3,-115.72,-8.23,-5.0,5.61,-0.09,0.02,0.99,1000
16:52:52.313,2.9,7.17,-115.65,-8.17,-2.62,8.29,-0.1,0.02,1.0,1000
16:52:52.321,2.72,7.04,-115.54,-8.05,-0.55,10.49,-0.1,0.02,0.98,1000
16:52:52.332,2.55,6.96,-115.42,-7.07,2.5,12.32,-0.1,0.02,1.01,1000
16:52:52.351,2.39,6.92,-115.28,-5.3,5.79,13.41,-0.1,0.01,0.99,1000
16:52:52.357,2.26,6.9,-115.14,-3.23,8.48,13.6,-0.1,0.02,1.01,1000
16:52:52.365,2.17,6.95,-114.98,-0.37,12.07,12.74,-0.11,0.02,1.01,1000
16:52:52.376,2.12,7.06,-114.85,2.07,12.32,11.4,-0.15,0.03,0.99,1000
16:52:52.387,2.15,7.24,-114.73,4.57,12.56,8.78,-0.14,0.05,1.04,1000
16:52:52.398,2.24,7.41,-114.65,5.91,10.91,6.89,-0.16,0.05,1.01,1000
16:52:52.409,2.34,7.61,-114.58,6.22,8.29,4.76,-0.17,0.04,1.08,1000
16:52:52.421,2.39,7.76,-114.53,4.21,6.22,5.18,-0.17,0.0,1.04,1000
16:52:52.431,2.32,7.89,-114.47,1.1,2.44,6.71,-0.17,-0.0,1.05,1000
16:52:52.443,2.18,7.99,-114.39,-2.74,-0.24,7.74,-0.16,0.01,1.04,1000
16:52:52.460,2.01,8.02,-114.3,-6.1,-1.71,8.23,-0.15,0.01,1.04,1000
16:52:52.464,1.83,8.04,-114.21,-9.39,-3.41,7.99,-0.14,0.03,1.03,1000
16:52:52.475,1.63,8.04,-114.13,-11.4,-2.56,7.07,-0.13,-0.0,1.03,1000
16:52:52.486,1.41,8.01,-114.05,-12.5,-1.89,5.85,-0.14,0.01,1.01,1000
16:52:52.500,1.21,8.0,-114.0,-12.93,-2.32,4.15,-0.16,0.02,1.0,1000
16:52:52.508,1.06,8.02,-113.97,-12.38,-2.07,0.91,-0.16,0.03,1.03,1000
16:52:52.519,0.96,8.03,-113.97,-11.65,-2.56,-1.34,-0.14,0.0,1.01,1000
16:52:52.534,0.8,8.01,-113.98,-11.22,-3.41,-0.91,-0.13,-0.03,1.03,1000
16:52:52.541,0.57,7.96,-113.99,-10.91,-3.96,0.73,-0.12,-0.04,1.01,1000
16:52:52.555,0.27,7.86,-113.97,-10.61,-5.18,2.68,-0.11,-0.05,1.01,1000
16:52:52.563,-0.04,7.73,-113.93,-10.0,-6.22,4.51,-0.11,-0.06,1.0,1000
16:52:52.574,-0.36,7.56,-113.87,-8.66,-6.77,6.04,-0.1,-0.06,1.0,1000
16:52:52.585,-0.66,7.36,-113.8,-7.68,-6.46,6.65,-0.08,-0.04,1.0,1000
16:52:52.596,-0.87,7.12,-113.74,-6.71,-5.73,7.2,-0.07,-0.05,1.0,1000
16:52:52.609,-1.1,6.84,-113.64,-5.43,-2.2,8.11,-0.06,-0.04,1.01,1000
16:52:52.620,-1.28,6.61,-113.55,-4.45,1.95,8.48,-0.06,-0.05,1.0,1000
16:52:52.631,-1.46,6.44,-113.46,-3.17,7.01,9.51,-0.08,-0.07,1.03,1000
16:52:52.640,-1.64,6.38,-113.35,-1.59,11.83,10.37,-0.11,-0.07,1.03,1000
16:52:52.662,-1.78,6.45,-113.23,0.98,15.12,9.57,-0.12,-0.04,1.05,1000
16:52:52.663,-1.8,6.61,-113.14,3.6,14.15,6.71,-0.14,0.02,1.04,1000
16:52:52.673,-1.65,6.82,-113.09,6.28,11.59,2.5,-0.14,0.0,1.1,1000
16:52:52.687,-1.51,6.96,-113.07,7.8,9.63,1.52,-0.14,-0.03,1.11,1000
16:52:52.700,-1.43,7.05,-113.05,7.93,6.28,1.16,-0.16,-0.04,1.08,1000
16:52:52.706,-1.38,7.12,-113.04,6.71,1.77,0.73,-0.13,-0.03,1.09,1000
16:52:52.720,-1.33,7.12,-113.04,5.73,-1.28,-0.55,-0.14,-0.01,1.08,1000
16:52:52.733,-1.25,7.09,-113.05,5.06,-4.94,-3.05,-0.15,0.02,1.05,1000
16:52:52.741,-1.11,7.05,-113.1,4.63,-7.8,-6.65,-0.14,0.03,1.07,1000
16:52:52.750,-0.93,6.99,-113.19,4.51,-8.35,-9.57,-0.15,0.03,1.03,1000
16:52:52.772,-0.71,6.98,-113.32,4.02,-9.88,-13.23,-0.16,0.04,1.01,1000
16:52:52.774,-0.46,7.01,-113.48,2.87,-11.1,-16.46,-0.16,0.05,0.99,1000
16:52:52.783,-0.21,7.01,-113.67,1.71,-11.34,-18.78,-0.14,0.06,0.98,1000
16:52:52.794,0.06,6.96,-113.88,0.18,-10.98,-19.94,-0.1,0.06,0.98,1000
16:52:52.805,0.26,6.82,-114.1,-1.83,-9.57,-19.7,-0.09,0.04,0.96,1000
16:52:52.816,0.42,6.68,-114.31,-3.66,-7.68,-17.32,-0.1,0.04,0.96,1000
16:52:52.827,0.54,6.56,-114.49,-5.06,-5.12,-14.7,-0.1,0.04,0.94,1000
16:52:52.839,0.63,6.49,-114.63,-5.85,-1.89,-11.77,-0.11,0.04,0.94,1000
16:52:52.849,0.68,6.49,-114.75,-5.73,2.01,-8.29,-0.11,0.03,0.95,1000
16:52:52.866,0.72,6.51,-114.82,-4.76,4.63,-4.82,-0.1,0.02,0.95,1000
16:52:52.871,0.75,6.54,-114.86,-2.74,7.99,-1.1,-0.1,0.02,0.95,1000
16:52:52.882,0.79,6.56,-114.85,-0.73,11.83,2.5,-0.09,0.03,0.94,1000
16:52:52.893,0.87,6.63,-114.81,1.59,15.43,5.55,-0.1,0.02,0.96,1000
16:52:52.904,0.98,6.75,-114.73,3.9,16.16,8.11,-0.13,0.04,0.93,1000
16:52:52.915,1.14,6.96,-114.63,6.04,16.16,9.39,-0.14,0.05,1.0,1000
16:52:52.933,1.32,7.17,-114.52,8.23,15.12,10.55,-0.13,0.02,0.99,1000
16:52:52.939,1.43,7.36,-114.4,10.18,13.78,12.56,-0.15,-0.01,1.04,1000
16:52:52.950,1.48,7.55,-114.25,11.65,11.89,14.63,-0.15,-0.01,1.02,1000
16:52:52.959,1.51,7.7,-114.08,11.77,9.57,15.37,-0.14,-0.01,1.07,1000
16:52:52.972,1.5,7.82,-113.91,11.59,8.29,15.55,-0.16,-0.0,1.06,1000
16:52:52.981,1.51,7.91,-113.74,11.1,6.65,14.88,-0.14,-0.01,1.09,1000
16:52:52.992,1.47,7.96,-113.59,10.0,6.1,13.9,-0.16,-0.02,1.09,1000
16:52:53.004,1.43,8.04,-113.44,8.9,4.45,12.44,-0.17,-0.0,1.08,1000
16:52:53.014,1.4,8.12,-113.32,7.44,2.87,9.27,-0.18,0.02,1.09,1000
16:52:53.025,1.43,8.21,-113.23,5.85,1.28,5.49,-0.19,0.04,1.08,1000
16:52:53.037,1.48,8.32,-113.2,3.78,-0.49,1.4,-0.19,0.03,1.09,1000
16:52:53.051,1.51,8.41,-113.19,1.77,-1.77,-1.16,-0.19,0.02,1.08,1000
16:52:53.059,1.51,8.49,-113.22,-0.18,-2.99,-3.48,-0.18,0.02,1.07,1000
16:52:53.073,1.48,8.54,-113.27,-1.28,-3.84,-5.12,-0.18,0.02,1.06,1000
16:52:53.080,1.47,8.58,-113.33,-2.13,-5.3,-7.44,-0.17,0.05,1.03,1000
16:52:53.091,1.5,8.59,-113.43,-2.44,-7.07,-9.63,-0.16,0.06,1.02,1000
16:52:53.102,1.58,8.57,-113.54,-3.35,-8.29,-11.89,-0.18,0.06,1.02,1000
16:52:53.113,1.64,8.53,-113.68,-4.76,-8.11,-12.8,-0.14,0.04,1.02,1000
16:52:53.124,1.66,8.46,-113.82,-6.22,-7.99,-13.11,-0.16,0.04,1.01,1000
16:52:53.135,1.66,8.42,-113.96,-7.38,-7.01,-12.74,-0.16,0.04,1.0,1000
16:52:53.147,1.64,8.4,-114.1,-7.8,-5.91,-12.5,-0.15,0.04,1.0,1000
16:52:53.157,1.61,8.38,-114.24,-7.01,-4.02,-12.13,-0.15,0.04,1.0,1000
16:52:53.175,1.6,8.36,-114.37,-5.79,-2.68,-12.13,-0.13,0.04,0.99,1000
16:52:53.180,1.6,8.33,-114.49,-4.02,-0.73,-12.01,-0.14,0.03,1.0,1000
16:52:53.190,1.62,8.34,-114.63,-1.52,1.1,-11.59,-0.15,0.03,0.99,1000
16:52:53.203,1.65,8.35,-114.76,0.79,2.44,-10.79,-0.14,0.02,0.99,1000
16:52:53.212,1.68,8.37,-114.86,3.05,3.84,-9.33,-0.14,0.01,0.99,1000
16:52:53.223,1.7,8.42,-114.96,5.06,5.37,-6.46,-0.16,0.01,0.99,1000
16:52:53.235,1.7,8.52,-115.02,6.59,5.79,-4.33,-0.15,0.03,1.0,1000
16:52:53.247,1.75,8.58,-115.05,7.62,6.4,-2.2,-0.13,0.03,1.01,1000
16:52:53.256,1.82,8.59,-115.07,7.93,6.34,-0.49,-0.14,0.03,1.03,1000
16:52:53.271,1.88,8.6,-115.06,7.74,4.39,1.16,-0.16,0.03,1.01,1000
16:52:53.280,1.97,8.61,-115.05,7.13,1.83,1.77,-0.16,0.06,1.07,1000
16:52:53.289,2.08,8.59,-115.03,5.79,-0.67,2.2,-0.15,0.03,1.06,1000
16:52:53.300,2.12,8.55,-115.0,4.33,-2.99,3.54,-0.16,0.02,1.08,1000
16:52:53.312,2.1,8.54,-114.95,2.74,-4.94,5.06,-0.17,0.02,1.06,1000
16:52:53.322,2.06,8.51,-114.89,1.52,-6.04,6.1,-0.17,0.02,1.06,1000
16:52:53.335,1.99,8.5,-114.83,-0.06,-6.71,6.34,-0.18,0.03,1.05,1000
16:52:53.344,1.95,8.49,-114.76,-1.4,-7.56,5.73,-0.17,0.03,1.05,1000
16:52:53.356,1.92,8.45,-114.7,-2.56,-7.07,4.88,-0.16,0.04,1.05,1000
16:52:53.366,1.88,8.39,-114.65,-3.48,-6.46,3.96,-0.15,0.03,1.04,1000
16:52:53.382,1.83,8.33,-114.61,-3.96,-5.67,3.23,-0.15,0.03,1.04,1000
16:52:53.388,1.77,8.28,-114.58,-4.09,-4.7,2.44,-0.14,0.03,1.02,1000
16:52:53.399,1.73,8.22,-114.56,-3.72,-4.21,1.65,-0.13,0.02,1.02,1000
16:52:53.410,1.67,8.14,-114.54,-2.99,-3.29,1.28,-0.13,0.01,1.01,1000
16:52:53.421,1.59,8.06,-114.53,-1.95,-2.56,1.59,-0.11,-0.01,1.02,1000
16:52:53.433,1.49,7.96,-114.51,-0.91,-2.2,1.89,-0.13,-0.0,1.0,1000
16:52:53.445,1.37,7.89,-114.48,0.37,-2.74,2.74,-0.14,-0.02,1.01,1000
16:52:53.454,1.25,7.85,-114.45,1.65,-3.23,2.74,-0.14,-0.0,1.0,1000
16:52:53.465,1.17,7.81,-114.43,3.05,-6.46,1.52,-0.14,0.04,0.97,1000
16:52:53.483,1.22,7.72,-114.42,4.76,-7.99,-1.1,-0.11,0.04,1.03,1000
16:52:53.487,1.31,7.55,-114.44,5.73,-9.88,-3.11,-0.12,0.03,0.99,1000
16:52:53.498,1.39,7.41,-114.48,5.55,-12.26,-4.21,-0.14,0.01,1.01,1000
16:52:53.511,1.41,7.31,-114.53,3.72,-12.8,-3.48,-0.14,-0.0,1.0,1000
16:52:53.520,1.35,7.22,-114.56,0.49,-12.5,-1.59,-0.15,-0.03,1.02,1000
16:52:53.531,1.18,7.18,-114.56,-2.99,-10.24,0.55,-0.15,-0.02,0.99,1000
16:52:56.251,0.71,0.09,-2.14,-1.89,-12.01,-6.52,0.31,-0.19,0.87,1250
16:52:57.260,3.67,-4.94,-15.02,11.52,-15.55,-17.93,0.68,0.04,0.92,1270
16:52:57.271,3.56,-5.07,-15.22,23.72,-11.22,-19.39,-0.28,-0.58,0.49,1270
16:52:57.282,3.43,-5.07,-15.42,-8.54,12.44,-22.32,0.01,0.6,1.07,1270
16:52:57.293,3.39,-5.1,-15.62,27.5,7.87,-18.72,-0.41,-0.63,0.87,1270
16:52:58.305,1.9,-3.06,-10.87,2.01,-14.63,-2.93,-0.35,-0.19,1.19,1270
16:53:01.320,1.59,-3.08,-16.01,20.67,-1.16,4.33,0.22,0.32,1.12,1260
16:53:02.332,-0.22,-3.53,-15.41,3.66,-1.77,-4.33,0.26,-0.35,0.93,1260
16:53:02.344,-0.26,-3.51,-15.41,-5.98,-0.24,-1.34,-0.28,0.11,1.13,1260
16:53:02.354,-0.22,-3.51,-15.41,-3.23,2.99,3.05,0.16,0.0,1.23,1260
16:53:02.364,-0.21,-3.57,-15.4,7.74,11.4,6.04,-0.19,-0.02,1.19,1260
16:53:03.379,0.7,-2.41,-10.1,13.6,-1.95,-2.32,-0.15,-0.02,1.11,1260
16:53:04.388,0.95,-2.75,-11.69,-5.79,15.06,8.05,-0.31,-0.4,1.1,1260
16:53:04.403,0.79,-2.67,-11.61,22.87,-1.89,8.96,-0.15,0.07,0.98,1260
16:53:04.413,0.48,-2.56,-11.53,-4.94,12.32,6.46,0.12,-0.55,1.2,1260
16:53:04.421,0.35,-2.44,-11.44,9.51,-10.18,8.48,0.49,0.68,1.1,1260
16:53:05.433,-3.51,-0.9,-14.39,-0.43,2.5,-8.72,0.22,0.77,1.37,1260
16:53:06.446,-2.84,-2.37,-14.05,-6.59,-7.01,-21.1,0.43,0.57,0.85,1260
16:53:06.456,-2.83,-2.31,-14.23,-6.52,-4.02,-18.96,-0.47,-0.96,0.83,1260
16:53:06.467,-3.01,-2.28,-14.4,5.0,0.55,-9.57,0.17,0.94,1.48,1260
16:53:06.481,-2.98,-2.18,-14.59,-7.44,0.3,-11.95,-0.06,-0.93,0.96,1260
16:53:06.489,-2.87,-2.04,-14.78,7.56,-1.34,-16.46,0.21,0.06,1.01,1260
16:53:07.457,-1.48,-1.33,-8.15,40.67,-12.5,-16.34,-0.13,-0.94,1.04,1260
16:53:07.468,-1.42,-1.37,-8.31,8.6,-4.94,-9.45,0.01,0.23,1.26,1260
16:53:07.479,-1.26,-1.4,-8.47,29.33,-0.67,-7.68,0.2,-0.07,1.36,1260
16:53:07.489,-1.2,-1.53,-8.64,21.4,-14.02,-16.46,0.02,-0.08,0.73,1260
16:53:09.502,1.15,-4.54,-20.13,29.27,-18.35,-1.46,-0.02,0.53,0.8,1260
16:53:10.514,-1.51,-3.31,-16.73,8.84,13.66,-46.59,-0.16,-0.8,1.04,1260
16:53:10.526,-1.42,-3.24,-17.22,12.62,6.1,-47.07,0.42,1.17,1.09,1260
16:53:10.541,-1.14,-3.32,-17.66,8.54,-12.8,-45.85,-0.07,-1.11,0.91,1260
16:53:10.547,-1.16,-3.36,-18.09,12.93,-0.18,-32.13,0.19,0.16,1.23,1260
16:53:11.560,1.16,-3.72,-12.65,-3.35,-3.29,10.06,-0.41,0.08,0.94,1260
16:53:14.574,0.33,-4.39,-16.24,-22.8,-3.05,-3.66,0.14,-0.04,1.16,1260
16:53:17.588,1.69,-3.89,-13.04,-9.76,-0.85,-14.27,-0.15,-0.56,1.0,1260
16:53:19.600,0.29,-3.14,-15.33,-4.15,19.63,-2.68,0.2,1.4,1.25,1260
16:53:20.622,-0.84,-2.54,-14.74,4.76,-1.52,-2.87,-0.06,-0.71,0.99,1260
16:53:20.624,-1.01,-2.48,-14.78,-8.54,0.79,-2.32,0.58,0.83,1.21,1260
16:53:20.634,-1.16,-2.39,-14.83,19.09,-20.24,-7.26,0.14,-1.09,0.67,1260
16:53:20.646,-1.1,-2.39,-14.86,-6.22,0.0,-4.21,-0.07,0.72,1.1,1260
16:53:21.657,0.5,-3.41,-19.14,15.3,-22.07,-12.38,0.13,-0.92,0.75,1260
16:53:22.669,-0.49,-2.95,-18.69,20.24,3.96,-13.35,-0.02,-1.34,0.71,1260
16:53:22.680,-0.78,-2.98,-18.82,-8.35,16.04,-15.67,0.6,1.21,1.13,1260
16:53:22.692,-0.5,-3.11,-18.95,-25.79,-0.06,-14.51,-0.22,-1.22,1.12,1260
16:53:22.703,-0.63,-3.05,-19.07,17.26,-4.27,-8.41,0.56,0.61,1.13,1260
16:53:22.714,-0.67,-3.07,-19.19,-17.26,21.59,-6.46,-0.48,0.36,1.36,1260
16:53:23.691,1.44,-3.98,-18.3,9.45,8.17,6.4,0.79,0.86,1.19,1260
16:53:23.692,1.34,-4.21,-18.33,-1.46,-10.06,-5.73,-0.38,-0.27,0.75,1260
16:53:23.703,1.27,-4.14,-18.37,-1.59,-4.45,-11.71,0.53,-0.24,0.74,1260
16:53:23.716,1.06,-4.15,-18.41,9.15,-11.4,-5.67,-0.3,-0.1,0.79,1260
16:53:27.686,-2.29,-2.46,-13.42,4.27,-4.27,6.65,0.19,0.11,1.14,1260
16:53:29.709,-1.98,-2.18,-14.71,-8.54,2.68,4.88,-0.21,0.29,1.26,1260
16:53:30.721,-2.44,-4.09,-11.33,6.46,-4.88,-24.76,0.51,0.6,1.26,1260
16:53:30.732,-2.35,-4.68,-11.54,8.23,-4.02,-14.57,-0.65,-0.83,0.72,1260
16:53:30.747,-2.45,-5.13,-11.77,-3.29,2.8,-27.44,0.47,0.75,1.39,1260
16:53:33.759,-2.15,-1.18,-8.92,-0.43,-6.1,-21.59,-0.1,-0.61,1.11,1260
16:53:34.769,-0.92,-0.95,-15.58,-33.66,-23.84,25.18,0.0,-1.04,1.03,1260
16:53:37.784,-0.77,0.45,-11.74,-9.57,-4.45,22.32,-0.04,-1.0,1.04,1260
16:53:38.795,-1.12,-3.4,-19.75,7.01,-7.38,-28.35,-0.18,0.1,0.82,1260
16:53:38.808,-0.57,-3.57,-20.08,-31.95,33.48,-31.46,-0.11,0.06,1.2,1260
16:53:38.817,-0.35,-3.73,-20.41,5.73,6.95,-28.29,-0.49,0.04,0.78,1260
16:53:38.828,-0.13,-3.88,-20.72,-20.18,24.45,-26.83,0.69,0.73,1.34,1260
16:53:39.841,-3.84,2.52,-2.32,11.59,-9.7,-14.21,0.24,-0.14,1.19,1260
16:53:41.853,-2.95,1.57,-13.87,-0.85,3.84,-31.1,-0.05,0.94,1.44,1260
16:53:42.864,0.3,-5.88,-10.12,6.65,10.98,29.33,0.25,0.1,1.13,1260
16:53:42.875,0.23,-5.96,-9.82,-5.55,-13.6,26.28,0.47,0.59,0.97,1260
16:53:42.886,0.34,-6.07,-9.51,-14.21,-2.56,26.52,-0.11,-0.94,0.98,1260
16:53:42.898,0.05,-6.08,-9.2,5.0,-9.09,31.65,0.18,0.79,1.13,1260
16:53:42.909,0.0,-6.03,-8.88,-23.41,15.73,30.06,-0.35,-0.54,0.9,1260
16:53:43.877,-1.82,-1.56,-5.83,15.43,-11.28,-30.73,0.26,-0.59,0.93,1260
16:53:43.887,-1.86,-1.56,-6.13,6.71,-15.37,-29.51,-0.31,-0.19,1.21,1260
16:53:43.898,-1.84,-1.41,-6.42,0.67,9.09,-25.18,0.2,-0.13,1.37,1260
16:53:43.910,-2.01,-1.21,-6.72,16.04,-17.8,-27.87,0.42,0.42,1.28,1260
16:53:45.868,0.49,-3.28,-13.63,1.52,-0.85,26.59,0.02,-0.95,0.75,1260
16:53:47.880,-4.0,-0.31,-8.1,-5.06,1.89,0.43,0.08,-0.69,0.85,1260
16:53:48.892,-4.47,0.76,-5.17,-10.24,-2.07,-69.21,0.47,0.68,1.23,1260
16:53:48.903,-4.28,0.66,-5.92,20.98,-22.38,-76.52,-0.21,-0.38,0.71,1260
16:53:48.914,-4.2,0.65,-6.68,-8.29,-15.43,-74.39,-0.44,-0.3,0.96,1260
16:53:48.925,-4.13,0.64,-7.44,10.3,0.98,-59.88,-0.17,-0.16,1.19,1260
16:53:49.937,2.01,-3.17,-5.57,-45.12,-1.04,24.21,-0.01,0.12,1.1,1260
16:53:52.952,4.39,34.67,106.27,3.6,-2.5,2.01,-0.63,-0.02,1.11,1000
16:53:52.962,4.29,34.4,106.3,2.87,-3.66,1.52,-0.65,0.11,1.01,1000
16:53:52.976,4.24,34.11,106.32,1.71,-7.01,0.79,-0.51,0.06,0.89,1000
16:53:52.986,4.21,33.89,106.34,-0.3,-3.17,-0.24,-0.46,0.09,0.95,1000
16:53:52.995,4.21,33.65,106.36,2.01,-0.73,2.68,-0.46,-0.01,0.95,1000
16:53:53.009,4.15,33.43,106.37,-3.78,-8.11,-1.59,-0.48,0.06,0.92,1000
16:53:53.017,4.13,33.26,106.38,-4.27,-5.85,-0.73,-0.49,0.01,0.79,1000
16:53:53.028,4.15,33.06,106.38,1.34,-0.73,-0.18,-0.5,0.0,0.79,1000
16:53:53.039,4.12,32.85,106.38,-0.79,1.95,-0.55,-0.51,0.07,0.82,1000
16:53:53.051,4.09,32.73,106.37,-4.57,0.85,-1.52,-0.5,0.04,0.95,1000
16:53:53.061,4.05,32.62,106.36,-1.34,-2.32,-0.55,-0.5,0.08,0.94,1000
16:53:53.073,3.97,32.49,106.35,-4.45,-2.99,-2.01,-0.45,-0.06,0.86,1000
16:53:53.083,3.91,32.4,106.33,-2.74,-2.62,-2.01,-0.51,-0.03,0.89,1000
16:53:53.094,3.82,32.31,106.32,2.99,4.02,-0.43,-0.56,0.06,0.81,1000
16:53:53.105,3.73,32.25,106.31,1.28,1.95,-0.91,-0.54,0.05,0.89,1000
16:53:53.116,3.65,32.2,106.3,-1.52,0.79,-0.85,-0.49,0.08,0.88,1000
16:53:53.127,3.59,32.14,106.29,-3.84,0.55,-0.73,-0.54,0.02,0.91,1000
16:53:53.139,3.51,32.06,106.28,-0.73,-1.4,-0.55,-0.48,-0.01,0.9,1000
16:53:53.149,3.46,32.0,106.28,0.37,1.04,-0.61,-0.54,0.04,0.93,1000
16:53:53.160,3.38,31.92,106.28,1.34,-2.87,-1.04,-0.4,-0.02,0.86,1000
16:53:53.183,3.33,31.84,106.28,-0.43,-3.54,-0.37,-0.51,0.02,0.93,1000
16:53:53.183,3.28,31.75,106.28,4.76,-0.3,-0.24,-0.57,0.09,0.89,1000
16:53:53.193,3.24,31.64,106.27,0.0,-2.62,0.0,-0.47,0.02,0.87,1000
16:53:53.204,3.23,31.55,106.27,0.98,0.06,-0.67,-0.49,-0.04,0.87,1000
16:53:53.216,3.19,31.46,106.27,1.22,-0.55,0.37,-0.51,0.09,0.89,1000
16:53:53.227,3.19,31.4,106.27,0.67,0.55,-0.91,-0.51,0.04,0.93,1000
16:53:53.243,3.18,31.34,106.26,-0.67,-1.1,-0.3,-0.54,0.05,0.9,1000
16:53:53.248,3.18,31.33,106.25,-2.44,0.43,-1.28,-0.51,0.07,0.92,1000
16:53:53.259,3.15,31.26,106.25,0.55,0.85,-0.43,-0.52,0.0,0.88,1000
16:53:53.270,3.12,31.19,106.25,-3.23,-0.55,-0.3,-0.54,-0.04,1.04,1000
16:53:53.285,3.04,31.12,106.24,-0.98,-1.16,-0.85,-0.48,0.05,0.88,1000
16:53:53.293,3.01,31.07,106.24,-2.26,-1.52,-1.59,-0.5,-0.01,0.91,1000
16:53:53.303,2.98,31.02,106.23,0.12,-0.73,-0.24,-0.49,0.04,0.89,1000
16:53:53.314,2.93,30.95,106.22,-1.71,-0.24,-1.04,-0.47,0.05,0.92,1000
16:53:53.325,2.91,30.92,106.21,-1.71,0.61,-0.61,-0.53,-0.0,0.89,1000
16:53:53.336,2.88,30.9,106.21,0.91,-0.67,-0.91,-0.5,0.02,0.83,1000
16:53:53.349,2.87,30.87,106.2,-0.49,-1.1,-0.43,-0.5,0.03,0.89,1000
16:53:53.358,2.84,30.84,106.2,0.98,0.18,-0.55,-0.53,0.04,0.87,1000
16:53:53.369,2.8,30.8,106.19,-0.37,-1.04,-0.73,-0.49,0.04,0.91,1000
16:53:53.390,2.79,30.75,106.19,-0.61,-1.16,-0.18,-0.5,0.02,0.9,1000
16:53:53.391,2.77,30.71,106.18,-0.49,-0.06,-0.73,-0.51,0.07,0.9,1000
16:53:53.402,2.76,30.66,106.18,-0.24,0.3,-1.04,-0.51,-0.01,0.9,1000
16:53:53.413,2.76,30.63,106.17,-0.55,-0.37,-0.12,-0.51,0.07,0.89,1000
16:53:53.425,2.76,30.61,106.17,-0.49,0.49,-0.67,-0.52,0.02,0.91,1000
16:53:53.435,2.75,30.58,106.16,-0.3,-0.67,-0.79,-0.49,0.05,0.88,1000
16:53:53.448,2.73,30.54,106.16,-1.4,-0.06,-0.85,-0.49,0.04,0.9,1000
16:53:53.458,2.72,30.49,106.15,0.18,-0.12,-0.79,-0.49,0.04,0.91,1000
16:53:53.468,2.7,30.43,106.15,-0.06,0.61,-0.55,-0.49,0.03,0.9,1000
16:53:53.490,2.68,30.39,106.14,-0.79,-0.43,-0.91,-0.49,0.02,0.91,1000
16:53:53.491,2.68,30.37,106.14,-0.43,-0.91,-0.37,-0.51,0.05,0.91,1000
16:53:53.501,2.66,30.33,106.13,0.43,0.12,-0.79,-0.51,0.04,0.91,1000
16:53:53.512,2.64,30.31,106.13,-0.49,-1.65,-0.61,-0.49,0.02,0.9,1000
16:53:53.523,2.63,30.28,106.12,0.49,-0.12,-0.12,-0.52,0.05,0.9,1000
16:53:53.534,2.61,30.25,106.12,-0.49,-0.85,-0.61,-0.52,0.05,0.91,1000
16:53:53.549,2.6,30.22,106.11,0.12,-0.49,-0.43,-0.52,0.05,0.9,1000
16:53:53.556,2.59,30.2,106.1,-0.18,-0.06,-0.49,-0.49,0.05,0.9,1000
16:53:53.567,2.58,30.16,106.1,-0.06,0.06,-0.43,-0.5,0.03,0.89,1000
16:53:53.582,2.57,30.12,106.1,-0.43,-0.43,-0.3,-0.5,0.04,0.89,1000
16:53:53.591,2.57,30.1,106.09,-0.18,-0.18,-0.61,-0.51,0.02,0.89,1000
16:53:53.600,2.57,30.07,106.09,0.18,-0.55,-0.18,-0.49,0.01,0.89,1000
16:53:53.612,2.54,30.03,106.08,-0.55,-0.3,-0.49,-0.49,0.04,0.9,1000
16:53:53.623,2.53,30.0,106.08,-0.3,-0.49,-0.91,-0.48,0.03,0.89,1000
16:53:53.633,2.53,29.96,106.07,-0.3,0.18,-0.12,-0.49,0.05,0.9,1000
16:53:53.644,2.51,29.94,106.07,-0.61,0.06,-0.91,-0.48,0.04,0.9,1000
16:53:53.656,2.51,29.92,106.06,-0.24,0.06,-0.3,-0.5,0.03,0.9,1000
16:53:53.668,2.51,29.89,106.05,-0.85,0.18,-0.49,-0.5,0.05,0.9,1000
16:53:53.677,2.5,29.87,106.05,-0.24,0.3,-1.1,-0.5,0.03,0.9,1000
16:53:53.694,2.5,29.84,106.04,-0.55,0.0,0.0,-0.5,0.03,0.9,1000
16:53:53.699,2.48,29.83,106.03,-0.49,-0.18,-0.55,-0.5,0.05,0.89,1000
16:53:53.711,2.47,29.82,106.03,-0.37,-0.06,-0.73,-0.5,0.03,0.9,1000
16:53:53.721,2.46,29.8,106.02,-0.37,-0.3,-0.18,-0.5,0.04,0.89,1000
16:53:53.732,2.46,29.79,106.02,-0.06,-0.55,-0.61,-0.49,0.04,0.9,1000
16:53:53.743,2.46,29.77,106.01,-0.3,-0.3,-0.43,-0.5,0.03,0.9,1000
16:53:53.754,2.45,29.76,106.01,-0.24,-0.49,-0.55,-0.49,0.05,0.89,1000
16:53:53.767,2.44,29.73,106.0,-0.12,-0.3,-0.61,-0.49,0.04,0.91,1000
16:53:53.776,2.44,29.71,106.0,-0.06,-0.3,-0.3,-0.5,0.03,0.89,1000
16:53:53.799,2.43,29.69,105.99,-0.49,-0.24,-0.49,-0.49,0.04,0.9,1000
16:53:53.800,2.42,29.68,105.99,-0.43,-0.24,-0.55,-0.5,0.03,0.9,1000
16:53:53.809,2.42,29.66,105.98,-0.24,-0.37,-0.61,-0.49,0.04,0.89,1000
16:53:53.820,2.42,29.64,105.98,-0.24,-0.06,-0.55,-0.49,0.04,0.9,1000
16:53:53.831,2.41,29.62,105.97,-0.43,-0.06,-0.43,-0.5,0.03,0.9,1000
16:53:53.842,2.4,29.6,105.96,-0.18,-0.24,-0.61,-0.49,0.05,0.9,1000
16:53:53.854,2.39,29.59,105.96,-0.37,-0.24,-0.73,-0.5,0.03,0.9,1000
16:53:53.864,2.39,29.58,105.95,-0.37,-0.24,-0.55,-0.49,0.04,0.89,1000
16:53:53.875,2.38,29.56,105.95,-0.37,-0.18,-0.61,-0.5,0.04,0.91,1000
16:53:53.898,2.37,29.55,105.94,-0.18,-0.49,-0.3,-0.5,0.03,0.9,1000
16:53:53.899,2.36,29.53,105.94,-0.3,-0.3,-0.43,-0.49,0.05,0.9,1000
16:53:53.908,2.36,29.51,105.93,-0.37,-0.37,-0.73,-0.5,0.04,0.9,1000
16:53:53.919,2.35,29.5,105.92,-0.18,-0.24,-0.18,-0.5,0.04,0.9,1000
16:53:53.931,2.35,29.48,105.92,-0.43,-0.24,-0.61,-0.5,0.04,0.9,1000
16:53:53.941,2.34,29.47,105.91,-0.18,-0.18,-0.61,-0.49,0.03,0.9,1000
16:53:53.953,2.34,29.45,105.91,-0.37,-0.24,-0.49,-0.49,0.04,0.9,1000
16:53:53.964,2.34,29.45,105.9,-0.3,-0.18,-0.49,-0.5,0.04,0.9,1000
16:53:53.974,2.33,29.43,105.9,-0.37,-0.18,-0.49,-0.5,0.04,0.9,1000
16:53:53.987,2.33,29.42,105.89,-0.37,-0.24,-0.55,-0.5,0.04,0.9,1000
16:53:54.002,2.32,29.41,105.88,-0.43,-0.12,-0.61,-0.49,0.04,0.9,1000
16:53:54.007,2.32,29.41,105.88,-0.37,-0.18,-0.55,-0.49,0.04,0.9,1000
16:53:54.018,2.31,29.4,105.87,-0.3,-0.18,-0.49,-0.5,0.04,0.89,1000
16:53:54.029,2.3,29.38,105.86,-0.3,-0.18,-0.55,-0.5,0.04,0.9,1000
16:53:54.041,2.3,29.38,105.86,-0.43,-0.18,-0.55,-0.5,0.04,0.9,1000
16:53:54.051,2.29,29.37,105.85,-0.18,-0.18,-0.49,-0.5,0.04,0.9,1000
16:53:54.062,2.28,29.36,105.85,-0.18,-0.18,-0.43,-0.49,0.04,0.9,1000
16:53:54.075,2.28,29.34,105.84,-0.3,-0.55,-0.61,-0.5,0.04,0.9,1000
16:53:54.084,2.28,29.33,105.84,-0.18,-0.24,-0.49,-0.5,0.04,0.9,1000
16:53:54.107,2.28,29.32,105.83,0.06,0.18,-0.55,-0.5,0.03,0.9,1000
16:53:54.107,2.27,29.32,105.82,0.55,-0.61,-0.37,-0.5,0.04,0.9,1000
16:53:54.123,2.26,29.31,105.82,0.49,-1.28,-0.12,-0.51,0.03,0.9,1000
16:53:54.128,2.25,29.31,105.82,0.79,-2.01,0.24,-0.5,0.03,0.89,1000
16:53:54.139,2.24,29.31,105.82,0.3,-4.45,0.73,-0.5,0.03,0.89,1000
16:53:54.154,2.24,29.3,105.83,0.91,-4.88,0.61,-0.51,0.05,0.9,1000
16:53:54.162,2.27,29.3,105.84,0.37,-5.18,0.85,-0.51,0.05,0.9,1000
16:53:54.172,2.29,29.28,105.85,0.73,-4.88,1.16,-0.49,0.03,0.89,1000
16:53:54.183,2.27,29.21,105.86,2.2,-4.09,1.28,-0.47,0.02,0.91,1000
16:53:54.206,2.26,29.11,105.87,2.99,-2.68,0.85,-0.49,0.04,0.91,1000
16:53:54.207,2.29,29.04,105.88,2.74,-2.2,0.85,-0.49,0.04,0.9,1000
16:53:54.216,2.33,28.99,105.89,2.01,-0.98,0.55,-0.48,0.05,0.9,1000
16:53:54.227,2.38,28.93,105.89,1.52,0.55,0.06,-0.47,0.04,0.91,1000
16:53:54.238,2.42,28.84,105.89,0.85,1.83,-0.3,-0.47,0.05,0.9,1000
16:53:54.249,2.47,28.78,105.89,-1.04,1.95,-1.34,-0.49,0.07,0.9,1000
16:53:54.261,2.55,28.77,105.87,-2.56,2.01,-1.59,-0.48,0.05,0.89,1000
16:53:54.272,2.58,28.78,105.85,-2.99,2.87,-1.95,-0.49,0.04,0.91,1000
16:53:54.283,2.56,28.8,105.83,-2.32,3.41,-1.83,-0.5,0.04,0.91,1000
16:53:54.294,2.52,28.85,105.81,-2.07,2.93,-1.59,-0.5,0.03,0.89,1000
16:53:54.327,2.48,28.9,105.79,-1.4,2.5,-1.46,-0.51,0.03,0.9,1000
16:53:54.327,2.43,28.94,105.78,0.49,2.68,-0.98,-0.49,0.01,0.9,1000
16:53:54.327,2.36,28.98,105.77,2.32,2.8,-0.67,-0.49,0.01,0.91,1000
16:53:54.337,2.28,29.01,105.76,4.51,1.34,-0.06,-0.53,0.0,0.9,1000
16:53:54.349,2.23,29.07,105.77,6.83,-0.67,1.04,-0.53,0.01,0.92,1000
16:53:54.359,2.15,29.13,105.79,10.3,-1.77,2.62,-0.53,-0.02,0.91,1000
16:53:54.374,2.07,29.22,105.83,15.18,-4.51,5.61,-0.58,-0.04,0.96,1000
16:53:54.382,2.04,29.27,105.91,26.89,-5.06,10.37,-0.62,-0.08,1.03,1000
16:53:54.392,1.97,29.3,106.05,41.04,-10.85,16.65,-0.7,-0.19,1.24,1000
16:53:54.411,1.85,29.17,106.27,63.35,-21.28,23.41,-0.74,-0.32,1.3,1000
16:53:54.414,1.77,28.93,106.55,94.82,-29.63,27.32,-0.78,-0.32,1.32,1000
16:53:54.427,1.88,28.72,106.85,122.5,-37.8,26.77,-0.84,-0.18,1.19,1000
16:53:54.436,2.53,28.56,107.13,132.93,-51.95,23.29,-0.71,0.01,1.1,1000
16:53:54.447,3.55,28.27,107.36,122.8,-70.43,18.84,-0.58,0.17,0.99,1000
16:53:54.458,4.75,27.76,107.54,99.88,-87.87,13.29,-0.61,0.25,0.94,1000
16:53:54.469,6.04,27.04,107.66,73.78,-119.82,8.9,-0.61,0.24,0.9,1000
16:53:54.485,7.12,25.98,107.76,41.34,-143.84,7.62,-0.45,0.35,0.93,1000
16:53:54.493,7.91,24.54,107.84,13.9,-162.2,7.8,-0.41,0.28,0.95,1000
16:53:54.521,8.48,22.8,107.93,-8.72,-175.06,8.96,-0.35,0.26,0.97,1000
16:53:54.522,8.7,20.8,108.03,-28.6,-178.78,9.15,-0.29,0.22,1.04,1000
16:53:54.524,8.57,18.89,108.13,-42.74,-175.0,10.61,-0.25,0.16,1.08,1000
16:53:54.536,8.01,16.55,108.27,-53.9,-166.65,12.74,-0.19,0.1,1.2,1000
16:53:54.546,7.25,14.44,108.42,-56.16,-157.99,14.88,-0.17,0.05,1.25,1000
16:53:54.557,6.3,12.4,108.59,-54.82,-146.16,17.38,-0.16,0.0,1.27,1000
16:53:54.570,5.28,10.54,108.79,-51.95,-132.5,19.21,-0.12,-0.02,1.23,1000
16:53:54.580,4.36,8.94,109.01,-45.55,-119.21,21.34,-0.07,-0.03,1.17,1000
16:53:54.590,3.44,7.52,109.25,-38.29,-107.13,22.44,-0.12,-0.06,1.12,1000
16:53:54.601,2.6,6.33,109.5,-32.32,-96.59,22.62,-0.12,-0.02,1.09,1000
16:53:54.614,1.97,5.39,109.75,-28.23,-83.96,22.62,-0.13,0.01,1.08,1000
16:53:54.623,1.49,4.7,110.0,-25.85,-70.85,22.07,-0.16,0.03,1.11,1000
16:53:54.636,1.13,4.27,110.24,-24.7,-59.02,21.4,-0.18,0.04,1.21,1000
16:53:54.645,0.85,3.94,110.47,-23.54,-50.43,20.98,-0.17,0.04,1.24,1000
16:53:54.656,0.63,3.77,110.7,-21.28,-39.39,20.55,-0.14,0.03,1.22,1000
16:53:54.668,0.44,3.67,110.92,-17.5,-26.52,19.57,-0.13,0.02,1.18,1000
16:53:54.680,0.28,3.7,111.13,-12.01,-14.09,18.29,-0.12,0.01,1.13,1000
16:53:54.689,0.15,3.85,111.33,-6.1,0.79,17.74,-0.12,-0.01,1.13,1000
16:53:54.703,0.03,4.16,111.52,1.34,15.3,16.46,-0.14,-0.03,1.15,1000
16:53:54.720,-0.03,4.6,111.7,9.57,29.94,16.4,-0.12,-0.05,1.16,1000
16:53:54.722,-0.06,5.14,111.88,18.29,45.24,16.4,-0.12,-0.05,1.19,1000
16:53:54.733,-0.03,5.79,112.06,26.71,61.1,17.13,-0.14,-0.05,1.17,1000
16:53:54.744,0.07,6.56,112.25,33.6,76.83,17.13,-0.14,-0.02,1.21,1000
16:53:54.755,0.25,7.42,112.45,37.8,90.85,17.8,-0.11,-0.01,1.25,1000
16:53:54.766,0.49,8.37,112.65,40.12,104.51,18.84,-0.18,0.01,1.29,1000
16:53:54.777,0.81,9.45,112.85,37.62,110.91,19.27,-0.17,0.1,1.25,1000
16:53:54.788,1.22,10.61,113.07,36.28,118.54,19.33,-0.14,0.11,1.22,1000
16:53:54.799,1.68,11.83,113.28,32.38,122.99,19.21,-0.17,0.06,1.2,1000
16:53:54.819,2.13,13.09,113.49,25.79,124.76,19.27,-0.25,0.13,1.16,1000
16:53:54.821,2.58,14.34,113.69,20.98,126.16,18.54,-0.25,0.12,1.14,1000
16:53:54.832,2.96,15.57,113.89,15.85,124.7,17.99,-0.28,0.12,1.19,1000
16:53:54.843,3.3,16.71,114.09,9.09,120.79,17.26,-0.31,0.15,1.21,1000
16:53:54.854,3.51,17.78,114.28,2.07,114.51,17.68,-0.31,0.15,1.2,1000
16:53:54.867,3.66,18.76,114.48,-4.94,102.74,17.56,-0.38,0.16,1.19,1000
16:53:54.876,3.75,19.71,114.66,-10.3,90.67,16.71,-0.39,0.12,1.19,1000
16:53:54.887,3.79,20.56,114.85,-16.89,74.76,16.16,-0.46,0.16,1.14,1000
16:53:54.900,3.8,21.31,115.01,-23.72,52.93,14.27,-0.51,0.18,1.09,1000
16:53:54.929,3.75,21.91,115.16,-32.44,28.9,12.01,-0.52,0.16,1.1,1000
16:53:54.929,3.67,22.33,115.27,-40.73,3.9,9.21,-0.55,0.17,1.09,1000
16:53:54.931,3.46,22.47,115.36,-48.9,-24.27,6.34,-0.55,0.17,1.07,1000
16:53:54.942,3.22,22.39,115.41,-53.9,-46.46,2.87,-0.51,0.14,1.02,1000
16:53:54.954,2.91,22.07,115.43,-55.91,-65.98,-0.55,-0.45,0.1,1.01,1000
16:53:54.964,2.5,21.49,115.41,-54.39,-80.24,-3.72,-0.4,0.07,0.99,1000
16:53:54.975,2.09,20.73,115.35,-50.24,-89.51,-6.4,-0.36,0.04,1.01,1000
16:53:54.989,1.64,19.79,115.26,-44.21,-93.54,-9.88,-0.31,0.03,1.01,1000
16:53:54.997,1.24,18.74,115.14,-37.62,-92.87,-13.17,-0.28,0.03,1.04,1000
16:53:55.008,0.93,17.61,114.97,-31.04,-89.27,-17.32,-0.25,0.04,1.05,1000
16:53:55.028,0.74,16.47,114.75,-25.0,-81.95,-22.5,-0.22,0.06,1.06,1000
16:53:55.031,0.64,15.5,114.51,-20.73,-72.99,-26.65,-0.2,0.07,1.06,1000
16:53:55.041,0.61,14.46,114.16,-15.91,-61.16,-32.5,-0.19,0.08,1.07,1000
16:53:55.052,0.71,13.58,113.78,-11.95,-49.76,-37.38,-0.18,0.07,1.05,1000
16:53:55.063,0.8,12.9,113.35,-7.8,-38.17,-42.01,-0.17,0.05,1.02,1000
16:53:55.074,0.94,12.32,112.86,-3.23,-27.56,-46.16,-0.17,0.04,0.99,1000
16:53:55.085,1.09,11.91,112.33,2.62,-17.68,-50.73,-0.18,0.04,0.97,1000
16:53:55.096,1.25,11.68,111.75,9.51,-8.78,-55.12,-0.2,0.03,0.96,1000
16:53:55.107,1.46,11.6,111.13,16.22,-2.93,-58.6,-0.21,0.03,0.95,1000
16:53:55.123,1.69,11.66,110.47,23.48,1.22,-62.32,-0.23,0.02,0.94,1000
16:53:55.129,1.95,11.81,109.77,30.06,3.48,-65.37,-0.24,0.01,0.93,1000
16:53:55.141,2.24,12.04,109.03,36.28,4.63,-68.11,-0.25,0.01,0.93,1000
16:53:55.151,2.53,12.32,108.27,42.26,5.24,-70.43,-0.25,0.0,0.93,1000
16:53:55.162,2.86,12.58,107.49,47.38,6.16,-72.8,-0.24,0.01,0.94,1000
16:53:55.173,3.21,12.8,106.68,52.13,7.99,-74.76,-0.22,0.01,0.95,1000
16:53:55.184,3.61,12.98,105.84,55.3,10.73,-77.07,-0.21,0.02,0.95,1000
16:53:55.197,4.03,13.12,104.98,57.5,14.27,-79.39,-0.19,0.03,0.94,1000
16:53:55.206,4.49,13.22,104.1,58.17,19.57,-81.83,-0.16,0.05,0.92,1000
16:53:55.218,4.95,13.27,103.19,57.2,25.18,-83.96,-0.15,0.06,0.91,1000
16:53:55.231,5.44,13.34,102.25,54.57,30.61,-86.22,-0.15,0.08,0.91,1000
16:53:55.239,5.94,13.41,101.29,50.12,35.55,-88.66,-0.15,0.1,0.89,1000
16:53:55.250,6.44,13.5,100.31,44.15,40.73,-91.04,-0.14,0.12,0.87,1000
16:53:55.262,6.92,13.64,99.3,37.07,45.3,-93.35,-0.15,0.13,0.86,1000
16:53:55.272,7.34,13.85,98.26,29.82,50.06,-95.85,-0.18,0.15,0.79,1000
16:53:55.283,7.65,14.08,97.2,20.24,47.68,-96.71,-0.16,-0.04,0.99,1000
16:53:55.294,7.91,14.34,96.12,11.95,48.41,-99.82,-0.24,0.3,0.87,1000
16:53:55.305,8.07,14.59,95.02,3.17,46.89,-101.34,-0.25,0.26,0.87,1000
16:53:55.316,8.16,14.86,93.9,-9.33,35.79,-102.93,-0.29,-0.09,1.02,1000
16:53:55.331,8.12,15.13,92.75,-12.44,32.62,-104.82,-0.21,-0.04,1.03,1000
16:53:55.338,8.02,15.4,91.6,-12.99,32.87,-106.28,-0.32,0.29,0.87,1000
16:53:55.349,7.77,15.57,90.42,-22.56,17.74,-106.77,-0.25,-0.1,0.9,1000
16:53:55.364,7.44,15.68,89.24,-21.4,7.99,-108.66,-0.2,-0.0,0.95,1000
16:53:55.372,7.06,15.68,88.05,-20.18,1.59,-109.51,-0.23,0.14,0.86,1000
16:53:55.383,6.66,15.57,86.84,-18.17,-8.78,-108.84,-0.3,0.09,0.9,1000
16:53:55.393,6.29,15.38,85.64,-10.24,-16.95,-110.12,-0.22,0.02,0.88,1000
16:53:55.406,5.93,15.07,84.42,-5.12,-22.87,-110.98,-0.18,0.04,0.93,1000
16:53:55.415,5.62,14.66,83.2,-4.33,-30.37,-111.34,-0.17,0.02,0.91,1000
16:53:55.428,5.39,14.19,81.97,-0.73,-38.29,-112.01,-0.26,0.09,1.0,1000
16:53:55.437,5.21,13.68,80.74,0.18,-41.89,-113.29,-0.24,0.14,0.92,1000
16:53:55.449,5.09,13.14,79.49,0.18,-44.7,-113.6,-0.22,0.06,1.01,1000
16:53:55.459,4.98,12.54,78.24,0.43,-48.35,-113.78,-0.18,0.03,0.9,1000
16:53:55.470,4.89,11.94,76.98,2.44,-51.95,-114.7,-0.17,0.04,0.95,1000
16:53:55.488,4.77,11.3,75.73,4.76,-54.09,-114.15,-0.17,0.04,0.86,1000
16:53:55.492,4.69,10.71,74.59,9.45,-54.45,-114.27,-0.16,0.05,0.91,1000
16:53:55.504,4.56,10.02,73.22,14.02,-54.76,-113.84,-0.15,0.01,0.85,1000
16:53:55.514,4.44,9.43,71.97,17.74,-55.73,-113.41,-0.16,-0.01,0.92,1000
16:53:55.528,4.33,8.89,70.73,21.59,-55.98,-112.56,-0.18,0.0,0.88,1000
16:53:55.536,4.25,8.42,69.49,25.61,-56.71,-112.26,-0.2,0.01,0.94,1000
16:53:55.547,4.17,8.03,68.26,29.09,-57.74,-111.59,-0.2,0.01,0.9,1000
16:53:55.559,4.17,7.66,67.03,31.22,-59.88,-110.98,-0.2,0.01,0.92,1000
16:53:55.569,4.21,7.33,65.81,32.93,-61.95,-110.61,-0.2,0.02,0.88,1000
16:53:55.580,4.27,7.09,64.59,33.84,-63.84,-110.79,-0.21,0.03,0.91,1000
16:53:55.591,4.37,6.88,63.38,33.54,-65.73,-110.49,-0.22,0.04,0.89,1000
16:53:55.602,4.49,6.69,62.16,32.56,-68.48,-110.98,-0.23,0.04,0.92,1000
16:53:55.617,4.64,6.47,60.94,30.79,-70.55,-111.22,-0.22,0.05,0.9,1000
16:53:55.625,4.79,6.2,59.71,28.6,-72.56,-111.4,-0.22,0.06,0.92,1000
16:53:55.639,4.91,5.98,58.48,26.4,-73.29,-111.83,-0.21,0.06,0.91,1000
16:53:55.646,5.0,5.74,57.25,24.51,-72.56,-112.38,-0.2,0.06,0.93,1000
16:53:55.657,5.06,5.54,56.02,22.99,-70.85,-112.62,-0.18,0.06,0.92,1000
16:53:55.668,5.11,5.25,54.78,21.71,-67.93,-112.56,-0.16,0.06,0.92,1000
16:53:55.679,5.13,4.97,53.54,20.85,-62.93,-112.68,-0.13,0.06,0.9,1000
16:53:55.691,5.16,4.66,52.3,20.18,-56.95,-112.8,-0.11,0.06,0.89,1000
16:53:55.701,5.17,4.37,51.06,19.27,-50.06,-112.99,-0.09,0.06,0.88,1000
16:53:55.713,5.2,4.08,49.82,18.23,-42.56,-112.8,-0.08,0.07,0.87,1000
16:53:55.725,5.24,3.85,48.57,18.35,-34.27,-112.8,-0.07,0.07,0.86,1000
16:53:55.736,5.26,3.66,47.33,16.4,-25.12,-112.74,-0.06,0.07,0.88,1000
16:53:55.745,5.28,3.56,46.1,14.63,-15.49,-112.38,-0.06,0.06,0.9,1000
16:53:55.756,5.26,3.54,44.86,13.35,-6.65,-111.95,-0.06,0.06,0.92,1000
16:53:55.767,5.21,3.61,43.63,12.8,2.68,-111.22,-0.07,0.06,0.95,1000
16:53:55.781,5.13,3.79,42.41,13.35,10.49,-110.43,-0.08,0.04,0.96,1000
16:53:55.789,5.06,4.05,41.2,14.76,17.32,-109.45,-0.1,0.03,0.97,1000
16:53:55.802,4.92,4.43,40.0,17.07,22.44,-108.54,-0.11,0.01,0.97,1000
16:53:55.811,4.78,4.88,38.81,20.79,25.91,-107.07,-0.13,0.0,0.97,1000
16:53:55.822,4.57,5.44,37.64,25.12,27.5,-105.55,-0.16,-0.01,0.96,1000
16:53:55.833,4.41,6.04,36.49,29.7,27.44,-103.84,-0.18,-0.02,0.97,1000
16:53:55.844,4.27,6.66,35.36,34.33,25.37,-102.2,-0.19,-0.02,0.96,1000
16:53:55.856,4.12,7.32,34.24,38.41,22.5,-100.24,-0.19,-0.02,0.94,1000
16:53:55.866,4.04,7.91,33.15,42.56,18.54,-98.35,-0.19,-0.02,0.91,1000
16:53:55.877,3.97,8.48,32.08,45.67,15.0,-96.46,-0.19,-0.01,0.88,1000
16:53:55.888,3.94,8.98,31.03,47.44,12.07,-94.63,-0.18,-0.0,0.86,1000
16:53:55.899,3.97,9.41,30.0,47.44,9.02,-92.93,-0.17,0.01,0.85,1000
16:53:55.910,4.08,9.74,28.98,45.98,6.77,-91.4,-0.16,0.02,0.84,1000
16:53:55.921,4.2,10.01,27.98,42.56,4.88,-89.82,-0.15,0.04,0.84,1000
16:53:55.932,4.36,10.2,27.0,37.56,3.54,-88.6,-0.15,0.06,0.83,1000
16:53:55.946,4.52,10.34,26.03,31.59,2.32,-87.38,-0.14,0.07,0.83,1000
16:53:55.954,4.67,10.42,25.08,24.45,1.89,-85.79,-0.13,0.08,0.83,1000
16:53:55.968,4.79,10.45,24.14,16.89,2.01,-84.57,-0.13,0.09,0.84,1000
16:53:55.977,4.83,10.48,23.21,8.96,2.07,-83.48,-0.13,0.09,0.85,1000
16:53:55.990,4.82,10.47,22.3,1.04,1.89,-82.13,-0.13,0.1,0.86,1000
16:53:55.998,4.74,10.44,21.41,-6.52,1.95,-80.85,-0.13,0.1,0.89,1000
16:53:56.009,4.63,10.39,20.52,-14.51,1.71,-79.76,-0.13,0.1,0.9,1000
16:53:56.020,4.45,10.34,19.65,-20.73,0.98,-78.54,-0.14,0.12,0.93,1000
16:53:56.031,4.21,10.3,18.8,-26.89,-0.37,-77.13,-0.15,0.12,0.94,1000
16:53:56.058,3.9,10.29,17.95,-32.5,-2.07,-76.1,-0.16,0.11,0.97,1000
16:53:56.067,3.6,10.25,17.12,-36.34,-3.9,-74.88,-0.16,0.09,0.97,1000
16:53:56.094,3.2,10.23,16.3,-38.23,-6.34,-73.54,-0.17,0.07,0.98,1000
16:53:56.098,2.77,10.19,15.5,-37.68,-8.41,-72.07,-0.17,0.06,0.97,1000
16:53:56.098,2.32,10.13,14.72,-34.94,-11.34,-70.55,-0.17,0.04,0.98,1000
16:53:56.098,1.87,10.05,13.95,-30.85,-13.6,-69.09,-0.16,0.02,0.98,1000
16:53:56.109,1.44,9.95,13.2,-25.37,-15.37,-67.32,-0.17,0.02,0.99,1000
16:53:56.124,1.06,9.84,12.47,-19.33,-16.83,-65.43,-0.17,0.01,1.01,1000
16:53:56.130,0.75,9.73,11.75,-13.66,-17.99,-63.9,-0.18,0.01,1.04,1000
16:53:56.151,0.51,9.62,11.06,-7.87,-18.17,-62.26,-0.17,0.02,1.05,1000
16:53:56.158,0.36,9.5,10.38,-2.93,-17.56,-60.61,-0.17,0.02,1.07,1000
16:53:56.165,0.27,9.37,9.72,1.16,-16.28,-58.96,-0.16,0.04,1.06,1000
16:53:56.176,0.25,9.26,9.14,3.48,-14.51,-57.74,-0.15,0.05,1.06,1000
16:53:56.186,0.33,9.12,8.45,4.7,-10.73,-56.4,-0.15,0.08,1.07,1000
16:53:56.196,0.43,9.04,7.83,3.72,-7.32,-55.61,-0.15,0.1,1.08,1000
16:53:56.207,0.69,8.94,7.23,1.4,-4.7,-54.88,-0.14,0.12,1.08,1000
16:53:56.218,0.98,8.87,6.63,-2.26,-1.83,-54.02,-0.13,0.13,1.06,1000
16:53:56.229,1.29,8.82,6.04,-6.89,0.85,-53.29,-0.13,0.15,1.03,1000
16:53:56.255,1.54,8.81,5.45,-10.79,3.48,-53.05,-0.13,0.15,1.02,1000
16:53:56.258,1.76,8.82,4.87,-14.63,5.37,-52.01,-0.13,0.13,0.99,1000
16:53:56.262,1.88,8.86,4.31,-17.32,7.56,-51.16,-0.12,0.12,0.98,1000
16:53:56.273,2.0,8.88,3.75,-18.41,11.52,-50.43,-0.09,0.05,0.94,1000
16:53:56.287,2.03,8.93,3.2,-14.39,13.29,-49.15,-0.15,0.1,0.99,1000
16:53:56.295,1.96,9.02,2.66,-11.1,15.18,-48.05,-0.14,0.09,0.95,1000
16:53:56.306,1.88,9.12,2.14,-7.2,16.4,-46.71,-0.12,0.02,0.98,1000
16:53:56.318,1.78,9.24,1.63,-1.77,18.72,-45.37,-0.11,-0.01,0.93,1000
16:53:56.329,1.69,9.39,1.14,6.22,22.68,-43.54,-0.13,-0.01,0.98,1000
16:53:56.341,1.61,9.57,0.68,13.72,26.22,-41.65,-0.14,-0.0,0.95,1000
16:53:56.357,1.6,9.78,0.23,19.88,29.02,-39.94,-0.13,-0.0,1.0,1000
16:53:56.361,1.64,10.01,-0.2,24.02,30.98,-37.99,-0.14,0.0,0.99,1000
16:53:56.372,1.76,10.28,-0.61,25.91,31.89,-36.52,-0.16,0.03,1.03,1000
16:53:56.383,1.97,10.58,-1.01,25.98,32.68,-34.82,-0.18,0.07,1.01,1000
16:53:56.394,2.23,10.93,-1.39,23.54,32.2,-33.78,-0.2,0.09,1.04,1000
16:53:56.405,2.55,11.27,-1.75,18.66,31.04,-32.74,-0.2,0.11,1.03,1000
16:53:56.416,2.87,11.59,-2.11,13.05,28.6,-31.71,-0.21,0.11,1.06,1000
16:53:56.427,3.15,11.89,-2.45,7.99,26.52,-31.04,-0.2,0.11,1.04,1000
16:53:56.438,3.36,12.13,-2.79,3.72,23.9,-30.3,-0.21,0.1,1.06,1000
16:53:56.457,3.5,12.32,-3.12,0.67,21.65,-29.02,-0.2,0.1,1.04,1000
16:53:56.461,3.57,12.45,-3.41,-1.34,18.78,-28.29,-0.2,0.09,1.06,1000
16:53:56.471,3.58,12.57,-3.74,-2.44,15.67,-27.01,-0.2,0.08,1.05,1000
16:53:56.482,3.56,12.63,-4.03,-2.2,12.87,-25.91,-0.19,0.07,1.06,1000
16:53:56.493,3.53,12.65,-4.31,-0.85,10.55,-24.7,-0.19,0.07,1.04,1000
16:53:56.504,3.49,12.62,-4.58,0.98,7.56,-23.6,-0.19,0.06,1.04,1000
16:53:56.520,3.45,12.54,-4.83,3.41,5.73,-22.38,-0.18,0.06,1.02,1000
16:53:56.526,3.44,12.47,-5.07,5.43,4.39,-21.16,-0.17,0.06,1.02,1000
16:53:56.537,3.44,12.36,-5.3,7.62,3.54,-20.0,-0.18,0.06,1.02,1000
16:53:56.560,3.47,12.24,-5.51,9.09,2.68,-19.02,-0.18,0.07,1.01,1000
16:53:56.564,3.52,12.11,-5.71,9.7,1.89,-17.74,-0.18,0.07,1.0,1000
16:53:56.570,3.59,12.02,-5.91,9.94,0.91,-16.95,-0.18,0.07,0.99,1000
16:53:56.581,3.66,11.93,-6.09,10.24,-1.52,-16.16,-0.2,0.07,0.99,1000
16:53:56.593,3.73,11.84,-6.26,11.28,-5.55,-14.94,-0.21,0.07,1.0,1000
16:53:56.603,3.8,11.76,-6.42,12.32,-9.94,-14.15,-0.22,0.07,1.03,1000
16:53:56.614,3.86,11.65,-6.57,12.68,-14.39,-13.6,-0.23,0.07,1.06,1000
16:53:56.626,3.91,11.52,-6.72,12.56,-18.84,-13.11,-0.24,0.08,1.09,1000
16:53:56.636,3.98,11.36,-6.87,11.46,-23.48,-13.29,-0.25,0.09,1.1,1000
16:53:56.647,4.07,11.19,-7.02,9.51,-28.48,-14.15,-0.25,0.1,1.09,1000
16:53:56.660,4.17,10.99,-7.18,7.2,-33.6,-15.37,-0.24,0.11,1.07,1000
16:53:56.669,4.27,10.76,-7.35,5.24,-37.62,-16.34,-0.24,0.11,1.05,1000
16:53:56.680,4.34,10.5,-7.54,4.02,-40.61,-17.32,-0.23,0.09,1.05,1000
16:53:56.691,4.38,10.21,-7.73,3.66,-41.95,-17.5,-0.21,0.08,1.07,1000
16:53:56.702,4.36,9.88,-7.92,4.51,-41.22,-16.83,-0.19,0.06,1.08,1000
16:53:56.713,4.29,9.53,-8.1,6.16,-38.17,-15.67,-0.17,0.04,1.08,1000
16:53:56.724,4.2,9.17,-8.26,8.96,-33.35,-13.96,-0.16,0.03,1.09,1000
16:53:56.740,4.08,8.85,-8.41,11.89,-27.8,-12.68,-0.16,0.03,1.1,1000
16:53:56.746,4.02,8.59,-8.54,14.76,-22.26,-12.2,-0.16,0.04,1.1,1000
16:53:56.767,3.98,8.4,-8.68,17.38,-16.65,-12.26,-0.17,0.05,1.1,1000
16:53:56.772,4.01,8.28,-8.82,19.57,-11.77,-13.29,-0.17,0.06,1.09,1000
16:53:56.779,4.08,8.23,-8.97,21.52,-7.13,-13.84,-0.16,0.07,1.09,1000
16:53:56.792,4.2,8.22,-9.13,23.11,-2.68,-15.24,-0.16,0.07,1.09,1000
16:53:56.801,4.35,8.24,-9.3,24.21,1.28,-16.83,-0.15,0.08,1.09,1000
16:53:56.812,4.51,8.29,-9.49,24.51,5.18,-18.41,-0.15,0.09,1.1,1000
16:53:56.824,4.7,8.36,-9.7,23.84,8.41,-20.0,-0.15,0.1,1.1,1000
16:53:56.834,4.9,8.46,-9.94,21.59,10.24,-22.44,-0.16,0.13,1.1,1000
16:53:56.845,5.16,8.56,-10.2,17.13,11.1,-25.24,-0.16,0.16,1.08,1000
16:53:56.857,5.44,8.68,-10.49,11.95,10.43,-28.23,-0.16,0.17,1.05,1000
16:53:56.867,5.71,8.8,-10.81,5.91,7.26,-30.67,-0.17,0.18,1.02,1000
16:53:56.878,5.95,8.89,-11.15,0.79,2.26,-30.91,-0.15,0.18,0.98,1000
16:53:56.889,6.16,8.92,-11.48,-4.02,-3.72,-28.54,-0.15,0.16,0.95,1000
16:53:56.900,6.31,8.85,-11.77,-8.84,-9.02,-23.72,-0.13,0.16,0.95,1000
16:53:56.911,6.37,8.69,-12.01,-13.17,-13.6,-18.05,-0.12,0.15,0.93,1000
16:53:56.922,6.38,8.45,-12.17,-15.79,-18.96,-11.4,-0.13,0.13,0.93,1000
16:53:56.933,6.3,8.19,-12.27,-16.59,-25.18,-5.67,-0.15,0.11,0.91,1000
16:53:56.946,6.15,7.95,-12.31,-15.24,-31.71,-1.28,-0.15,0.1,0.92,1000
16:53:56.955,5.95,7.7,-12.3,-13.84,-36.04,2.32,-0.15,0.09,0.93,1000
16:53:56.969,5.75,7.42,-12.27,-13.41,-37.2,3.84,-0.14,0.09,0.93,1000
16:53:56.977,5.55,7.12,-12.23,-13.11,-36.16,3.84,-0.12,0.08,0.91,1000
16:53:56.988,5.34,6.84,-12.19,-12.93,-32.99,2.93,-0.12,0.08,0.93,1000
16:53:57.016,5.13,6.59,-12.17,-12.44,-29.33,1.22,-0.11,0.07,0.93,1000
16:53:57.016,4.91,6.36,-12.16,-11.52,-25.06,-0.55,-0.11,0.06,0.96,1000
16:53:57.021,4.69,6.2,-12.18,-9.88,-21.34,-2.8,-0.12,0.06,0.96,1000
16:53:57.032,4.47,6.11,-12.22,-7.99,-18.9,-4.94,-0.14,0.06,0.98,1000
16:53:57.045,4.29,6.1,-12.28,-6.52,-17.87,-6.89,-0.16,0.07,0.98,1000
16:53:57.054,4.16,6.13,-12.37,-5.49,-19.27,-9.27,-0.17,0.08,0.99,1000
16:53:57.069,4.09,6.23,-12.49,-4.82,-22.07,-11.59,-0.18,0.09,0.96,1000
16:53:57.076,4.06,6.27,-12.63,-4.27,-25.24,-13.35,-0.17,0.08,0.95,1000
16:53:57.087,4.04,6.31,-12.77,-4.33,-26.71,-13.23,-0.15,0.07,0.94,1000
16:53:57.100,4.02,6.29,-12.91,-4.88,-25.67,-10.3,-0.11,0.08,0.95,1000
16:53:57.109,3.95,6.18,-13.0,-4.94,-23.35,-6.34,-0.08,0.07,0.94,1000
16:53:57.120,3.87,6.01,-13.05,-6.4,-17.56,-1.28,-0.06,0.05,0.97,1000
16:53:57.132,3.78,5.77,-13.04,-7.01,-11.22,4.82,-0.05,0.08,0.94,1000
16:53:57.142,3.67,5.6,-12.96,-3.48,-8.11,10.55,-0.06,0.07,0.94,1000
16:53:57.153,3.57,5.44,-12.81,-1.46,-4.76,16.59,-0.03,0.07,0.96,1000
16:53:57.164,3.54,5.26,-12.6,-0.06,1.1,22.5,-0.04,0.06,0.96,1000
16:53:57.178,3.56,5.11,-12.33,1.95,3.84,27.87,-0.04,0.08,0.95,1000
16:53:57.186,3.63,5.02,-11.99,4.27,7.07,32.62,-0.03,0.09,0.96,1000
16:53:57.197,3.75,4.96,-11.61,7.32,9.33,36.28,-0.06,0.08,0.95,1000
16:53:57.208,3.91,4.93,-11.2,9.94,12.07,39.82,-0.06,0.07,0.99,1000
16:53:57.219,4.1,4.92,-10.74,12.56,15.67,43.17,-0.02,0.09,1.0,1000
16:53:57.230,4.28,4.95,-10.25,15.24,17.93,46.4,-0.04,0.08,1.01,1000
16:53:57.241,4.49,4.96,-9.73,18.23,20.61,49.7,-0.04,0.08,1.01,1000
16:53:57.253,4.69,5.0,-9.17,20.12,22.26,52.38,-0.05,0.09,1.02,1000
16:53:57.263,4.91,5.08,-8.58,21.83,23.29,54.33,-0.06,0.1,1.02,1000
16:53:57.276,5.15,5.22,-7.98,22.99,22.93,55.61,-0.08,0.1,1.04,1000
16:53:57.285,5.39,5.38,-7.36,23.54,21.71,55.98,-0.09,0.11,1.04,1000
16:53:57.296,5.63,5.55,-6.75,23.78,18.96,55.91,-0.1,0.1,1.06,1000
16:53:57.307,5.85,5.73,-6.14,23.84,15.91,54.88,-0.11,0.1,1.05,1000
16:53:57.318,6.04,5.89,-5.54,23.78,11.77,54.09,-0.11,0.1,1.05,1000
16:53:57.329,6.21,6.02,-4.95,22.68,8.35,53.17,-0.11,0.09,1.04,1000
16:53:57.344,6.34,6.1,-4.37,20.79,5.61,52.26,-0.1,0.1,1.05,1000
16:53:57.352,6.44,6.12,-3.79,17.87,4.02,51.83,-0.09,0.1,1.04,1000
16:53:57.362,6.5,6.09,-3.23,15.12,2.8,51.46,-0.08,0.09,1.03,1000
16:53:57.379,6.51,6.02,-2.66,12.68,1.4,50.91,-0.09,0.09,1.03,1000
16:53:57.384,6.5,5.94,-2.11,10.18,-0.67,49.82,-0.09,0.08,1.03,1000
16:53:57.395,6.45,5.85,-1.57,7.8,-2.68,48.9,-0.08,0.1,1.02,1000
16:53:57.406,6.39,5.74,-1.04,6.52,-6.28,46.95,-0.1,0.1,1.01,1000
16:53:57.417,6.33,5.61,-0.53,4.39,-9.09,45.06,-0.1,0.1,1.02,1000
16:53:57.428,6.25,5.45,-0.05,0.18,-10.67,43.6,-0.06,0.11,1.03,1000
16:53:57.439,6.16,5.29,0.42,-3.29,-12.2,41.22,-0.09,0.11,1.02,1000
16:53:57.450,6.03,5.14,0.86,-5.18,-15.24,38.6,-0.04,0.08,1.0,1000
16:53:57.461,5.84,4.96,1.27,-4.76,-12.07,35.0,-0.11,0.04,1.05,1000
16:53:57.477,5.64,4.73,1.64,-2.93,-4.63,31.95,-0.04,0.05,1.03,1000
16:53:57.483,5.44,4.53,1.97,3.84,0.43,27.32,0.04,0.06,1.01,1000
16:53:57.494,5.3,4.39,2.25,10.98,7.74,21.77,-0.04,0.08,1.0,1000
16:53:57.506,5.27,4.36,2.46,16.22,14.09,15.91,-0.09,0.1,1.03,1000
16:53:57.516,5.37,4.46,2.6,17.74,16.46,8.41,-0.12,0.14,1.01,1000
16:53:57.527,5.6,4.69,2.65,16.28,14.45,0.79,-0.13,0.15,1.03,1000
16:53:57.539,5.87,5.01,2.63,12.8,9.15,-6.16,-0.18,0.16,1.02,1000
16:53:57.551,6.12,5.39,2.54,8.54,2.13,-9.51,-0.19,0.14,1.03,1000
16:53:57.560,6.26,5.66,2.43,4.57,-2.87,-10.49,-0.18,0.16,1.03,1000
16:53:57.571,6.34,5.89,2.32,-3.41,-6.04,-9.33,-0.19,0.12,1.04,1000
16:53:57.588,6.32,6.06,2.22,-9.7,-12.44,-7.32,-0.13,0.13,1.0,1000
16:53:57.593,6.22,6.12,2.16,-15.91,-12.44,-3.78,-0.11,0.13,1.01,1000
16:53:57.604,6.09,6.11,2.13,-21.77,-10.79,-0.73,-0.11,0.16,0.96,1000
16:53:57.615,5.99,6.03,2.14,-28.96,-12.5,1.52,-0.11,0.16,0.96,1000
16:53:57.626,5.9,5.93,2.16,-36.1,-13.54,2.44,-0.08,0.18,0.93,1000
16:53:57.639,5.82,5.79,2.18,-42.56,-13.78,2.56,-0.08,0.18,0.96,1000
16:53:57.651,5.71,5.61,2.21,-47.26,-14.27,1.65,-0.1,0.17,0.95,1000
16:53:57.659,5.51,5.46,2.22,-50.18,-14.09,0.55,-0.1,0.18,0.98,1000
16:53:57.687,5.31,5.33,2.22,-51.89,-14.15,-1.65,-0.08,0.19,0.99,1000
16:53:57.687,5.06,5.2,2.19,-52.74,-14.76,-4.15,-0.1,0.17,1.02,1000
16:53:57.692,4.77,5.09,2.13,-53.96,-14.33,-6.89,-0.09,0.18,1.03,1000
16:53:57.703,4.52,4.98,2.04,-54.15,-13.66,-9.02,-0.13,0.15,1.04,1000
16:53:57.714,4.31,4.88,1.93,-52.99,-14.15,-11.04,-0.1,0.17,1.02,1000
16:53:57.725,4.11,4.78,1.79,-48.78,-15.61,-14.09,-0.06,0.15,0.99,1000
16:53:57.738,3.98,4.67,1.63,-44.39,-15.24,-15.61,-0.05,0.14,1.0,1000
16:53:57.747,3.82,4.51,1.45,-40.24,-14.02,-17.01,-0.07,0.14,0.99,1000
16:53:57.761,3.77,4.33,1.26,-35.43,-12.5,-17.07,-0.06,0.13,1.0,1000
16:53:57.769,3.69,4.17,1.08,-31.04,-9.33,-16.16,-0.05,0.11,0.99,1000
16:53:57.786,3.63,4.05,0.91,-25.18,-6.77,-14.88,-0.08,0.09,1.0,1000
16:53:57.791,3.57,4.0,0.75,-18.9,-5.37,-14.02,-0.09,0.08,1.0,1000
16:53:57.802,3.52,4.04,0.6,-12.01,-4.82,-13.78,-0.11,0.06,1.0,1000
16:53:57.813,3.5,4.14,0.44,-6.46,-2.8,-13.9,-0.11,0.07,0.99,1000
16:53:57.824,3.51,4.27,0.29,-0.85,-0.18,-13.66,-0.12,0.04,1.01,1000
16:53:57.835,3.49,4.51,0.15,4.27,1.4,-11.46,-0.16,-0.01,1.03,1000
16:53:57.849,3.36,4.84,0.04,13.6,5.12,-8.84,-0.17,-0.04,1.07,1000
16:53:57.857,3.22,5.19,-0.05,20.98,10.12,-6.34,-0.17,-0.06,1.04,1000
16:53:57.868,3.05,5.63,-0.11,26.28,15.43,-4.57,-0.17,-0.06,1.04,1000
16:53:57.886,2.92,6.14,-0.15,28.84,19.63,-2.74,-0.18,-0.04,1.02,1000
16:53:57.891,2.93,6.68,-0.17,28.41,23.6,-0.79,-0.19,0.05,1.0,1000
16:53:57.901,3.08,7.26,-0.17,23.78,25.18,0.91,-0.21,-0.03,1.14,1000
16:53:57.912,3.46,7.89,-0.14,18.78,30.0,3.11,-0.2,0.14,0.94,1000
16:53:57.924,3.91,8.56,-0.1,13.17,30.49,5.0,-0.22,0.13,0.99,1000
16:53:57.934,4.3,9.18,-0.03,8.6,30.55,8.72,-0.23,0.17,0.98,1000
16:53:57.945,4.59,9.78,0.08,7.68,32.44,12.56,-0.22,0.12,0.97,1000
16:53:57.958,4.78,10.31,0.24,6.16,32.38,15.91,-0.18,0.08,1.0,1000
16:53:57.967,4.89,10.73,0.43,7.38,33.96,19.02,-0.13,0.05,1.02,1000
16:53:57.978,4.96,11.02,0.66,5.12,34.45,21.16,-0.12,0.07,1.01,1000
16:53:57.991,5.07,11.23,0.9,0.37,32.99,22.44,-0.11,0.21,1.05,1000
16:53:57.999,5.2,11.32,1.12,3.23,38.72,22.32,-0.04,0.05,1.04,1000
16:53:58.011,5.31,11.27,1.38,2.93,40.73,20.85,0.0,0.06,1.0,1000
16:53:58.022,5.43,11.05,1.6,1.28,39.82,17.62,-0.04,0.11,1.11,1000
16:53:58.033,5.53,10.85,1.78,1.77,38.84,14.27,-0.05,0.12,1.07,1000
16:53:58.044,5.63,10.66,1.91,3.54,37.93,10.79,-0.06,0.11,1.13,1000
16:53:58.055,5.7,10.44,2.01,4.88,31.77,6.95,-0.06,0.11,1.09,1000
16:53:58.068,5.79,10.31,2.07,12.2,29.63,3.11,-0.14,0.1,1.15,1000
16:53:58.077,5.91,10.29,2.09,17.2,22.07,-0.3,-0.19,0.12,1.09,1000
16:53:58.096,6.03,10.3,2.07,23.05,12.8,-3.66,-0.22,0.06,1.18,1000
16:53:58.099,6.09,10.33,2.02,29.45,5.06,-7.74,-0.22,0.03,1.11,1000
16:53:58.110,6.16,10.34,1.9,35.91,-0.67,-12.5,-0.19,0.02,1.13,1000
16:53:58.121,6.24,10.25,1.74,40.79,-3.72,-17.26,-0.18,0.07,1.09,1000
16:53:58.132,6.51,10.09,1.53,44.76,-5.55,-21.16,-0.16,0.17,1.16,1000
16:53:58.143,7.01,9.88,1.28,47.07,-4.82,-23.9,-0.13,0.22,1.08,1000
16:53:58.156,7.71,9.64,1.01,47.44,-2.38,-24.88,-0.15,0.21,1.07,1000
16:53:58.165,8.43,9.49,0.74,44.45,0.79,-24.45,-0.16,0.2,1.0,1000
16:53:58.178,9.06,9.43,0.48,37.87,3.96,-22.62,-0.17,0.19,1.0,1000
16:53:58.187,9.58,9.46,0.24,30.49,5.73,-20.49,-0.17,0.22,0.97,1000
16:53:58.198,10.03,9.5,0.02,24.82,6.83,-19.7,-0.16,0.19,1.01,1000
16:53:58.209,10.29,9.52,-0.2,21.89,5.85,-19.88,-0.16,0.13,1.01,1000
16:53:58.220,10.4,9.49,-0.41,20.49,3.48,-19.27,-0.16,0.14,1.03,1000
16:53:58.231,10.5,9.44,-0.62,18.41,0.55,-17.2,-0.17,0.2,1.01,1000
16:53:58.242,10.66,9.42,-0.79,14.88,-2.8,-12.44,-0.2,0.23,0.98,1000
16:53:58.253,10.91,9.49,-0.89,9.63,-5.73,-6.16,-0.25,0.26,0.96,1000
16:53:58.264,11.17,9.64,-0.93,4.02,-10.49,0.55,-0.24,0.22,0.97,1000
16:53:58.275,11.35,9.75,-0.9,2.01,-14.82,4.27,-0.21,0.23,0.98,1000
16:53:58.286,11.48,9.73,-0.84,2.74,-17.13,7.32,-0.18,0.21,0.95,1000
16:53:58.298,11.63,9.61,-0.75,7.07,-35.79,10.3,-0.24,0.16,0.63,1000
16:53:58.308,11.82,9.53,-0.64,17.99,-1.1,12.13,-0.15,0.15,0.83,1000
16:53:58.319,12.03,9.45,-0.48,21.71,-0.12,16.46,-0.08,0.23,0.89,1000
16:53:58.331,12.28,9.44,-0.29,28.48,12.8,20.61,-0.1,0.2,0.89,1000
16:53:58.341,12.57,9.54,-0.04,32.07,18.35,24.39,-0.15,0.17,0.96,1000
16:53:58.356,12.85,9.73,0.24,32.56,30.0,26.4,-0.11,0.22,0.96,1000
16:53:58.363,13.17,10.01,0.53,31.4,38.35,26.77,-0.15,0.24,0.98,1000
16:53:58.375,13.5,10.32,0.81,27.38,43.35,24.39,-0.17,0.25,0.98,1000
16:53:58.385,13.8,10.67,1.07,23.84,44.82,21.28,-0.17,0.24,0.99,1000
16:53:58.396,14.03,11.04,1.27,21.22,43.35,16.46,-0.19,0.22,0.99,1000
16:53:58.407,14.2,11.39,1.44,19.63,39.57,13.11,-0.19,0.23,0.97,1000
16:53:58.419,14.33,11.69,1.56,17.07,35.73,9.88,-0.18,0.24,0.97,1000
16:53:58.429,14.46,11.94,1.66,14.21,28.11,7.93,-0.21,0.24,0.95,1000
16:53:58.441,14.61,12.17,1.74,10.91,19.94,7.01,-0.24,0.28,0.95,1000
16:53:58.451,14.74,12.41,1.82,7.38,7.5,6.28,-0.29,0.26,0.96,1000
16:53:58.463,14.77,12.6,1.88,5.0,-7.62,5.24,-0.28,0.22,0.96,1000
16:53:58.473,14.71,12.63,1.93,1.89,-23.17,4.02,-0.27,0.24,0.97,1000
16:53:58.484,14.62,12.52,1.98,-1.28,-34.39,5.0,-0.25,0.23,0.98,1000
16:53:58.500,14.51,12.27,2.04,-5.24,-40.49,6.83,-0.25,0.25,0.98,1000
16:53:58.509,14.38,11.97,2.13,-9.15,-42.93,10.43,-0.25,0.23,0.99,1000
16:53:58.517,14.18,11.62,2.27,-12.38,-42.01,14.45,-0.23,0.22,0.99,1000
16:53:58.528,13.91,11.27,2.45,-15.43,-37.8,18.78,-0.2,0.21,0.99,1000
16:53:58.539,13.65,10.97,2.66,-17.13,-32.8,22.8,-0.19,0.21,0.96,1000
16:53:58.550,13.33,10.65,2.95,-17.74,-25.43,26.28,-0.18,0.19,0.97,1000
16:53:58.561,12.98,10.42,3.25,-16.22,-18.96,27.87,-0.16,0.17,0.96,1000
16:53:58.572,12.65,10.2,3.55,-13.23,-12.2,27.38,-0.15,0.18,0.97,1000
16:53:58.584,12.36,10.01,3.85,-9.15,-4.39,26.65,-0.15,0.18,0.96,1000
16:53:58.594,12.15,9.9,4.14,-4.7,3.35,25.73,-0.16,0.19,0.97,1000
16:53:58.608,12.01,9.9,4.41,0.49,10.85,25.06,-0.17,0.19,0.98,1000
16:53:58.617,11.94,10.01,4.69,5.49,16.16,23.9,-0.19,0.2,1.0,1000
16:53:58.627,11.9,10.23,4.94,16.16,11.46,22.07,-0.21,0.2,0.85,1000
16:53:58.638,11.95,10.46,5.17,15.79,17.44,18.72,-0.26,0.18,1.02,1000
16:53:58.649,11.98,10.66,5.36,17.62,16.89,14.09,-0.22,0.19,0.93,1000
16:53:58.660,12.05,10.85,5.48,18.41,13.66,8.41,-0.15,0.21,1.04,1000
16:53:58.672,12.1,10.97,5.55,17.62,14.51,3.54,-0.16,0.22,1.01,1000
16:53:58.683,12.21,11.08,5.58,17.32,15.37,2.32,-0.17,0.24,1.03,1000
16:53:58.693,12.36,11.2,5.6,14.76,18.72,2.56,-0.22,0.26,1.02,1000
16:53:58.712,12.55,11.42,5.64,12.32,19.76,3.35,-0.23,0.24,1.04,1000
16:53:58.714,12.69,11.64,5.67,10.61,19.33,3.78,-0.2,0.24,0.99,1000
16:53:58.725,12.79,11.81,5.71,6.34,18.66,1.71,-0.18,0.25,1.03,1000
16:53:58.737,12.85,11.85,5.71,2.8,17.32,-0.55,-0.14,0.23,0.96,1000
16:53:58.749,12.86,11.82,5.7,0.3,18.66,-1.65,-0.09,0.22,0.98,1000
16:53:58.759,12.85,11.58,5.68,0.98,20.73,-1.22,-0.04,0.22,0.97,1000
16:53:58.776,12.87,11.25,5.68,2.44,23.9,2.13,-0.07,0.27,0.99,1000
16:53:58.781,13.01,11.01,5.75,1.95,25.98,10.49,-0.15,0.3,0.99,1000
16:53:58.792,13.18,10.98,5.91,1.71,24.94,20.24,-0.17,0.25,1.04,1000
16:53:58.803,13.26,10.99,6.18,1.46,22.74,28.96,-0.16,0.25,1.06,1000
16:53:58.816,13.3,10.94,6.53,0.49,21.16,35.73,-0.12,0.25,1.04,1000
16:53:58.825,13.29,10.82,6.95,-2.26,21.89,41.4,-0.1,0.25,1.06,1000
16:53:58.838,13.26,10.67,7.44,-5.24,24.88,47.87,-0.11,0.27,1.02,1000
16:53:58.848,13.26,10.57,8.0,-9.09,28.96,55.0,-0.13,0.29,1.02,1000
16:53:58.858,13.28,10.58,8.64,-12.74,31.71,62.01,-0.17,0.31,1.01,1000
16:53:58.873,13.31,10.69,9.34,-14.76,30.61,66.4,-0.18,0.3,1.04,1000
16:53:58.880,13.29,10.83,10.08,-16.1,26.52,66.89,-0.17,0.25,1.05,1000
16:53:58.891,13.19,10.88,10.81,-16.34,21.77,63.84,-0.14,0.24,1.05,1000
16:53:58.902,13.05,10.79,11.48,-17.32,18.23,58.6,-0.14,0.26,1.03,1000
16:53:58.913,12.92,10.69,12.1,-18.96,15.67,53.9,-0.16,0.25,1.01,1000
16:53:58.924,12.78,10.6,12.68,-19.45,14.63,51.04,-0.16,0.26,1.01,1000
16:53:58.935,12.69,10.54,13.24,-18.9,13.72,49.27,-0.18,0.26,1.0,1000
16:53:58.951,12.6,10.54,13.78,-17.2,12.07,48.29,-0.19,0.24,0.98,1000
16:53:58.957,12.52,10.57,14.3,-14.39,9.57,46.59,-0.2,0.23,0.99,1000
16:53:58.970,12.45,10.59,14.8,-11.4,5.55,43.96,-0.18,0.21,0.95,1000
16:53:58.983,12.36,10.56,15.27,-10.3,1.65,40.91,-0.18,0.21,0.95,1000
16:53:58.997,12.26,10.48,15.7,-10.12,-2.26,37.93,-0.17,0.19,0.94,1000
16:53:59.005,12.11,10.35,16.11,-10.91,-5.18,36.04,-0.16,0.19,0.92,1000
16:53:59.016,11.97,10.21,16.46,-12.99,-6.65,35.37,-0.18,0.2,0.91,1000
16:53:59.023,11.79,10.1,16.89,-16.83,-7.93,36.22,-0.21,0.19,0.88,1000
16:53:59.034,11.6,10.14,17.3,-20.18,-7.93,37.99,-0.25,0.19,0.88,1000
16:53:59.046,11.39,10.33,17.72,-22.93,-8.35,38.6,-0.25,0.19,0.86,1000
16:53:59.057,11.17,10.53,18.14,-23.84,-8.05,36.77,-0.23,0.2,0.88,1000
16:53:59.067,10.98,10.64,18.52,-23.17,-6.22,32.38,-0.2,0.19,0.86,1000
16:53:59.078,10.87,10.73,18.86,-20.0,-2.87,27.99,-0.19,0.2,0.87,1000
16:53:59.089,10.82,10.78,19.15,-14.51,1.89,24.09,-0.19,0.2,0.87,1000
16:53:59.100,10.88,10.89,19.4,-6.83,6.89,22.93,-0.22,0.21,0.88,1000
16:53:59.114,11.04,11.13,19.66,1.28,11.59,24.45,-0.25,0.23,0.88,1000
16:53:59.122,11.32,11.48,19.94,10.37,15.24,27.44,-0.27,0.25,0.89,1000
16:53:59.133,11.73,11.95,20.26,19.27,16.77,29.63,-0.29,0.23,0.92,1000
16:53:59.144,12.15,12.44,20.59,27.5,16.71,29.39,-0.28,0.23,0.92,1000
16:53:59.156,12.59,12.83,20.9,33.29,15.61,27.26,-0.28,0.25,0.92,1000
16:53:59.166,13.11,13.23,21.18,36.4,15.06,23.72,-0.28,0.26,0.91,1000
16:53:59.177,13.51,13.33,21.47,7.62,46.77,32.62,0.08,0.4,1.32,1000
16:53:59.188,13.48,13.33,21.87,-19.51,80.0,41.46,-0.13,0.31,1.07,1000
16:53:59.199,13.24,13.58,22.35,-36.59,90.3,43.11,-0.34,0.27,1.11,1000
16:53:59.222,12.98,14.36,22.78,-37.56,85.85,34.27,-0.33,0.3,0.91,1000
16:53:59.222,12.92,15.36,23.11,-33.23,77.5,24.09,-0.36,0.29,0.97,1000
16:53:59.232,12.89,16.29,23.33,-29.21,67.13,13.66,-0.37,0.31,0.91,1000
16:53:59.243,12.93,17.15,23.42,-30.12,60.49,3.84,-0.36,0.28,1.07,1000
16:53:59.254,12.81,17.84,23.42,-32.5,56.83,-6.4,-0.37,0.28,0.98,1000
16:53:59.265,12.64,18.49,23.3,-35.43,53.17,-15.3,-0.4,0.26,1.03,1000
16:53:59.277,12.44,19.16,23.09,-34.51,47.99,-22.93,-0.42,0.24,0.93,1000
16:53:59.288,12.22,19.82,22.82,-31.71,41.4,-27.26,-0.4,0.22,0.95,1000
16:53:59.298,11.97,20.39,22.52,-29.09,39.7,-26.89,-0.38,0.2,0.91,1000
16:53:59.309,11.7,20.9,22.23,-26.34,41.04,-24.51,-0.38,0.2,0.94,1000
16:53:59.325,11.45,21.37,21.97,-23.41,45.37,-22.13,-0.37,0.18,0.91,1000
16:53:59.331,11.21,21.87,21.74,-18.96,50.43,-20.43,-0.4,0.19,0.9,1000
16:53:59.343,11.05,22.48,21.51,-12.87,54.88,-21.34,-0.43,0.18,0.89,1000
16:53:59.353,10.92,23.16,21.28,-8.29,60.55,-22.01,-0.44,0.15,0.9,1000
16:53:59.365,10.8,23.93,21.03,-4.76,67.44,-23.41,-0.46,0.15,0.9,1000
16:53:59.375,10.64,24.79,20.77,-1.16,76.95,-24.27,-0.47,0.19,0.91,1000
16:53:59.386,10.5,25.7,20.5,-2.44,81.95,-25.43,-0.48,0.14,0.9,1000
16:53:59.397,10.35,26.65,20.2,-2.5,86.77,-28.29,-0.46,0.1,0.9,1000
16:53:59.408,10.21,27.59,19.89,-3.6,90.61,-29.7,-0.48,0.15,0.92,1000
16:53:59.427,10.07,28.51,19.55,-5.18,93.6,-32.07,-0.5,0.16,0.94,1000
16:53:59.430,9.85,29.38,19.18,-6.83,95.24,-34.7,-0.5,0.14,0.95,1000
16:53:59.441,9.61,30.21,18.78,-7.56,94.82,-38.17,-0.49,0.11,0.95,1000
16:53:59.452,9.32,30.94,18.35,-9.76,93.41,-41.1,-0.5,0.11,0.96,1000
16:53:59.463,9.01,31.56,17.92,-12.87,91.28,-44.09,-0.53,0.11,0.94,1000
16:53:59.474,8.62,32.33,17.38,-17.07,86.89,-47.56,-0.56,0.1,0.95,1000
16:53:59.487,8.24,33.03,16.84,-22.13,82.87,-50.73,-0.59,0.11,0.94,1000
16:53:59.496,7.81,33.73,16.26,-25.18,77.8,-54.15,-0.64,0.1,0.99,1000
16:53:59.507,7.34,34.39,15.64,-30.55,74.02,-58.29,-0.66,0.1,0.9,1000
16:53:59.524,6.84,35.01,14.98,-35.79,61.83,-60.85,-0.62,0.06,0.93,1000
16:53:59.532,6.38,35.46,14.37,-36.83,52.32,-60.98,-0.61,0.07,0.9,1000
16:53:59.542,5.83,35.85,13.64,-37.62,41.4,-59.02,-0.61,0.08,0.91,1000
16:53:59.551,5.31,36.09,13.01,-38.84,31.71,-56.59,-0.6,0.07,0.88,1000
16:53:59.563,4.78,36.19,12.4,-38.78,23.6,-53.66,-0.6,0.05,0.88,1000
16:53:59.573,4.24,36.23,11.82,-37.99,16.1,-50.98,-0.59,0.03,0.85,1000
16:53:59.584,3.69,36.19,11.28,-36.77,9.94,-48.11,-0.59,0.01,0.85,1000
16:53:59.595,3.13,36.13,10.77,-35.24,4.94,-44.82,-0.6,-0.0,0.83,1000
16:53:59.608,2.57,36.06,10.3,-32.93,0.73,-40.24,-0.61,-0.02,0.83,1000
16:53:59.618,2.04,36.0,9.87,-30.73,-3.41,-35.49,-0.61,-0.03,0.8,1000
16:53:59.632,1.48,35.96,9.51,-27.74,-6.71,-29.33,-0.61,-0.03,0.81,1000
16:53:59.641,1.01,35.87,9.22,-25.12,-9.15,-23.11,-0.61,-0.04,0.8,1000
16:53:59.650,0.51,35.79,8.99,-22.38,-10.61,-17.8,-0.6,-0.06,0.81,1000
16:53:59.661,0.13,35.68,8.84,-20.43,-10.85,-13.23,-0.59,-0.07,0.81,1000
16:53:59.672,-0.32,35.54,8.7,-19.02,-8.84,-9.33,-0.59,-0.07,0.82,1000
16:53:59.683,-0.8,35.45,8.61,-18.96,-6.04,-8.11,-0.59,-0.07,0.81,1000
16:53:59.694,-1.27,35.37,8.52,-19.15,-2.44,-8.66,-0.58,-0.08,0.81,1000
16:53:59.707,-1.76,35.32,8.42,-19.57,1.34,-10.0,-0.57,-0.08,0.81,1000
16:53:59.716,-2.22,35.29,8.29,-20.55,5.98,-12.2,-0.58,-0.09,0.8,1000
16:53:59.729,-2.67,35.34,8.15,-22.07,9.88,-13.66,-0.57,-0.07,0.75,1000
16:53:59.738,-3.12,35.44,8.0,-20.3,11.83,-15.12,-0.62,-0.07,0.75,1000
16:53:59.749,-3.53,35.6,7.83,-21.52,14.09,-15.55,-0.54,-0.06,0.78,1000
16:53:59.760,-3.91,35.79,7.65,-20.43,16.95,-16.04,-0.56,-0.1,0.77,1000
16:53:59.771,-4.24,35.97,7.47,-18.84,17.56,-16.65,-0.58,-0.1,0.77,1000
16:53:59.782,-4.57,36.19,7.29,-17.8,19.09,-16.83,-0.59,-0.09,0.75,1000
16:53:59.794,-4.87,36.4,7.1,-16.65,19.82,-16.4,-0.58,-0.09,0.77,1000
16:53:59.804,-5.14,36.6,6.92,-15.37,21.4,-16.28,-0.58,-0.1,0.76,1000
16:53:59.817,-5.38,36.8,6.75,-13.66,22.74,-15.85,-0.58,-0.1,0.77,1000
16:53:59.831,-5.62,37.0,6.58,-11.65,23.9,-14.82,-0.58,-0.11,0.76,1000
16:53:59.839,-5.85,37.19,6.42,-9.27,24.94,-13.23,-0.58,-0.11,0.77,1000
16:53:59.848,-6.05,37.39,6.29,-6.1,25.37,-10.91,-0.59,-0.12,0.76,1000
16:53:59.859,-6.22,37.59,6.18,-2.68,25.24,-8.35,-0.6,-0.12,0.76,1000
16:53:59.869,-6.33,37.78,6.11,1.1,24.7,-5.43,-0.59,-0.11,0.77,1000
16:53:59.881,-6.37,37.98,6.07,4.82,22.2,-1.28,-0.6,-0.12,0.76,1000
16:53:59.892,-6.39,38.14,6.07,7.2,19.57,2.26,-0.62,-0.12,0.77,1000
16:53:59.903,-6.4,38.29,6.11,9.02,15.85,5.61,-0.63,-0.12,0.77,1000
16:53:59.915,-6.37,38.42,6.19,10.37,12.01,9.15,-0.63,-0.11,0.77,1000
16:53:59.925,-6.32,38.53,6.31,11.65,8.35,12.74,-0.64,-0.11,0.77,1000
16:53:59.939,-6.25,38.61,6.47,13.29,5.37,16.83,-0.65,-0.12,0.77,1000
16:53:59.947,-6.17,38.68,6.67,15.85,2.87,20.49,-0.66,-0.11,0.76,1000
16:53:59.958,-6.08,38.76,6.92,19.57,-0.85,24.94,-0.65,-0.12,0.75,1000
16:53:59.969,-5.96,38.83,7.22,23.96,-4.76,30.49,-0.65,-0.12,0.74,1000
16:53:59.980,-5.78,38.85,7.59,30.37,-10.3,37.38,-0.64,-0.11,0.72,1000
16:53:59.991,-5.54,38.82,8.03,37.26,-16.89,44.21,-0.64,-0.11,0.72,1000
16:54:00.002,-5.22,38.72,8.55,45.43,-24.27,51.59,-0.64,-0.09,0.71,1000
16:54:00.014,-4.79,38.62,9.15,52.62,-31.16,57.87,-0.64,-0.06,0.73,1000
16:54:00.024,-4.21,38.42,9.8,56.16,-33.96,60.18,-0.65,-0.03,0.77,1000
16:54:00.036,-3.53,38.18,10.46,57.56,-35.24,59.39,-0.66,-0.01,0.78,1000
16:54:00.046,-2.81,37.91,11.1,58.96,-36.77,56.04,-0.66,-0.0,0.79,1000
16:54:00.057,-2.08,37.62,11.7,59.7,-38.66,51.52,-0.65,0.0,0.82,1000
16:54:00.068,-1.36,37.22,12.24,56.71,-37.5,47.13,-0.61,0.03,0.89,1000
16:54:00.079,-0.69,36.74,12.74,50.06,-33.72,41.89,-0.6,0.03,0.93,1000
16:54:00.090,-0.11,36.18,13.17,43.23,-30.37,36.4,-0.6,0.01,0.96,1000
16:54:00.101,0.33,35.58,13.54,40.24,-30.85,30.12,-0.61,-0.01,0.97,1000
16:54:00.112,0.69,34.99,13.84,41.22,-35.43,23.05,-0.63,-0.01,0.97,1000
16:54:00.123,1.02,34.38,14.06,42.8,-42.99,15.85,-0.64,0.01,0.95,1000
16:54:00.134,1.38,33.8,14.2,41.95,-50.79,10.73,-0.66,0.04,0.94,1000
16:54:00.146,1.78,33.25,14.31,37.99,-58.66,8.05,-0.67,0.07,0.92,1000
16:54:00.156,2.21,32.73,14.39,33.54,-66.46,7.93,-0.68,0.1,0.9,1000
16:54:00.167,2.66,32.22,14.48,27.56,-74.33,8.66,-0.68,0.12,0.91,1000
16:54:00.178,3.09,31.7,14.58,22.32,-82.32,10.0,-0.68,0.13,0.9,1000
16:54:00.192,3.52,31.18,14.7,19.09,-90.12,10.61,-0.68,0.13,0.9,1000
16:54:00.200,3.88,30.58,14.81,18.54,-99.39,9.39,-0.68,0.12,0.89,1000
16:54:00.211,4.22,29.93,14.9,20.91,-108.96,6.59,-0.67,0.12,0.9,1000
16:54:00.222,4.56,29.24,14.96,22.99,-117.13,4.7,-0.64,0.11,0.92,1000
16:54:00.233,4.88,28.39,15.01,23.66,-122.74,4.27,-0.62,0.12,0.93,1000
16:54:00.248,5.19,27.47,15.06,23.72,-126.22,4.94,-0.61,0.13,0.97,1000
16:54:00.255,5.51,26.49,15.12,22.8,-126.95,5.79,-0.6,0.15,1.01,1000
16:54:00.266,5.82,25.49,15.18,22.2,-126.16,5.06,-0.6,0.16,1.03,1000
16:54:00.277,6.16,24.57,15.22,23.72,-127.2,0.98,-0.58,0.17,1.01,1000
16:54:00.289,6.53,23.63,15.2,25.98,-128.84,-5.37,-0.54,0.16,1.0,1000
16:54:00.304,6.91,22.63,15.12,29.57,-130.91,-9.88,-0.46,0.16,1.01,1000
16:54:00.325,7.27,21.58,15.02,33.72,-132.44,-9.39,-0.35,0.12,1.0,1000
16:54:00.325,7.65,20.28,14.94,40.55,-134.82,-4.39,-0.31,0.12,0.96,1000
16:54:00.356,8.17,18.72,14.91,46.22,-140.85,1.77,-0.29,0.2,0.99,1000
16:54:00.357,8.81,17.13,14.96,49.21,-143.23,7.62,-0.24,0.22,1.03,1000
16:54:00.357,9.45,15.6,15.06,51.89,-142.56,12.13,-0.22,0.23,1.06,1000
16:54:00.367,10.19,13.8,15.23,56.59,-140.37,15.79,-0.2,0.23,1.04,1000
16:54:00.376,10.92,12.19,15.42,61.28,-138.48,17.56,-0.17,0.24,1.05,1000
16:54:00.387,11.71,10.58,15.62,64.39,-135.55,18.72,-0.11,0.27,1.04,1000
16:54:00.398,12.54,8.99,15.83,64.88,-131.65,19.76,-0.08,0.29,1.05,1000
16:54:00.409,13.41,7.39,16.05,60.67,-121.22,20.85,-0.03,0.33,1.13,1000
16:54:00.420,14.2,5.91,16.28,53.41,-109.82,20.37,-0.04,0.32,1.05,1000
16:54:00.431,14.92,4.67,16.49,44.88,-99.45,18.23,-0.08,0.33,0.97,1000
16:54:00.443,15.57,3.65,16.67,39.15,-90.73,13.66,-0.05,0.31,1.02,1000
16:54:00.453,16.1,2.71,16.79,34.57,-81.77,8.23,-0.03,0.31,1.0,1000
16:54:00.464,16.55,1.85,16.85,28.78,-72.01,2.2,0.0,0.36,1.02,1000
16:54:00.475,17.02,1.06,16.85,23.48,-63.29,-3.66,0.02,0.37,1.01,1000
16:54:00.486,17.49,0.3,16.79,18.66,-56.04,-7.74,0.06,0.39,0.98,1000
16:54:00.497,17.92,-0.43,16.69,14.27,-49.57,-10.24,0.07,0.38,0.98,1000
16:54:00.511,18.3,-1.11,16.57,11.22,-44.33,-11.22,0.06,0.38,0.95,1000
16:54:00.519,18.61,-1.69,16.44,6.77,-39.33,-12.68,0.07,0.38,0.94,1000
16:54:00.530,18.9,-2.21,16.3,2.38,-35.06,-12.87,0.06,0.34,0.89,1000
16:54:00.543,19.13,-2.68,16.16,-1.16,-33.29,-12.13,0.07,0.34,0.87,1000
16:54:00.552,19.26,-3.13,16.04,-3.9,-31.71,-9.15,0.1,0.32,0.86,1000
16:54:00.563,19.34,-3.62,15.97,-3.66,-32.01,-3.23,0.13,0.32,0.88,1000
16:54:00.574,19.36,-4.23,15.97,-1.89,-29.76,5.18,0.11,0.32,0.91,1000
16:54:00.586,19.38,-4.8,16.06,-6.16,-25.61,11.4,0.14,0.32,0.88,1000
16:54:00.596,19.46,-5.28,16.21,-6.89,-24.09,16.34,0.13,0.31,0.92,1000
16:54:00.608,19.54,-5.6,16.4,-6.34,-20.79,17.87,0.08,0.37,0.84,1000
16:54:00.619,19.73,-5.85,16.6,-6.89,-16.89,17.13,0.14,0.42,0.91,1000
16:54:00.629,19.94,-6.17,16.78,-7.68,-13.54,16.89,0.18,0.33,0.88,1000
16:54:00.641,20.02,-6.59,16.98,-4.21,-9.94,18.17,0.22,0.31,0.95,1000
16:54:00.651,19.92,-7.01,17.18,-3.96,-1.1,18.23,0.21,0.33,0.99,1000
16:54:00.662,19.75,-7.3,17.37,-7.5,5.73,16.04,0.15,0.34,0.97,1000
16:54:00.673,19.63,-7.35,17.52,-7.74,10.06,10.85,0.12,0.35,0.95,1000
16:54:00.684,19.58,-7.26,17.61,-3.48,10.91,5.43,0.1,0.31,0.94,1000
16:54:00.695,19.55,-7.12,17.66,2.74,9.21,2.5,0.1,0.3,0.94,1000
16:54:00.708,19.53,-6.99,17.68,7.62,8.35,1.77,0.11,0.31,0.97,1000
16:54:00.717,19.53,-6.87,17.7,10.49,7.93,2.99,0.11,0.31,0.95,1000
16:54:00.728,19.57,-6.75,17.74,13.29,6.89,4.57,0.1,0.32,0.96,1000
16:54:00.739,19.67,-6.63,17.79,17.74,3.72,4.76,0.08,0.33,0.95,1000
16:54:00.753,19.83,-6.47,17.84,21.4,0.24,4.02,0.06,0.31,0.98,1000
16:54:00.761,19.92,-6.3,17.88,24.57,-2.38,1.89,0.03,0.26,0.96,1000
16:54:00.772,19.97,-6.13,17.89,27.01,-2.8,-0.3,0.08,0.28,0.98,1000
16:54:00.783,20.03,-5.99,17.87,28.54,-0.85,-2.5,0.08,0.3,1.0,1000
16:54:00.793,20.13,-5.91,17.84,28.17,1.4,-4.09,0.11,0.3,0.96,1000
16:54:00.805,20.22,-5.83,17.78,27.5,4.88,-6.04,0.1,0.29,0.96,1000
16:54:00.818,20.23,-5.73,17.71,26.52,8.54,-8.05,0.09,0.27,0.93,1000
16:54:00.827,20.24,-5.63,17.6,25.91,11.52,-10.73,0.1,0.27,0.92,1000
16:54:00.838,20.28,-5.52,17.47,26.65,12.74,-15.06,0.1,0.3,0.93,1000
16:54:00.853,20.37,-5.39,17.28,28.54,12.44,-18.84,0.1,0.32,0.95,1000
16:54:00.861,20.54,-5.28,17.06,31.83,11.46,-20.55,0.09,0.34,0.96,1000
16:54:00.871,20.76,-5.18,16.83,36.1,8.72,-21.83,0.08,0.35,0.97,1000
16:54:00.882,21.08,-5.06,16.58,40.85,4.21,-23.23,0.06,0.37,0.95,1000
16:54:00.893,21.51,-4.95,16.33,44.94,-2.2,-24.02,0.04,0.38,0.95,1000
16:54:00.904,21.99,-4.84,16.06,47.68,-8.35,-23.6,0.03,0.38,0.94,1000
16:54:00.915,22.45,-4.73,15.81,47.38,-16.89,-20.98,0.05,0.36,0.93,1000
16:54:00.926,22.91,-4.72,15.61,48.17,-23.66,-16.71,0.02,0.41,0.92,1000
16:54:00.937,23.43,-4.78,15.44,48.23,-30.12,-12.74,0.0,0.44,0.89,1000
16:54:00.948,23.99,-4.87,15.32,43.9,-36.59,-8.48,0.03,0.45,0.88,1000
16:54:00.961,24.54,-5.07,15.26,37.5,-42.56,-3.35,0.06,0.44,0.88,1000
16:54:00.972,25.06,-5.36,15.25,30.43,-47.99,1.77,0.08,0.46,0.86,1000
16:54:00.981,25.6,-5.75,15.29,23.54,-52.87,7.01,0.1,0.5,0.84,1000
16:54:00.991,26.11,-6.28,15.39,17.32,-57.5,10.91,0.11,0.52,0.84,1000
16:54:01.003,26.58,-6.88,15.53,11.28,-61.46,14.39,0.13,0.53,0.84,1000
16:54:01.016,27.03,-7.54,15.7,3.72,-63.35,17.26,0.15,0.52,0.83,1000
16:54:01.025,27.34,-8.25,15.91,-4.82,-63.9,20.3,0.18,0.52,0.82,1000
16:54:01.038,27.59,-9.0,16.14,-12.5,-64.88,22.74,0.18,0.51,0.81,1000
16:54:01.047,27.7,-9.75,16.4,-18.35,-66.1,23.72,0.19,0.49,0.82,1000
16:54:01.060,27.73,-10.5,16.66,-22.93,-66.71,24.45,0.2,0.47,0.82,1000
16:54:01.069,27.66,-11.25,16.93,-26.4,-66.83,24.27,0.2,0.49,0.83,1000
16:54:01.085,27.55,-11.99,17.19,-28.9,-65.55,23.11,0.24,0.49,0.84,1000
16:54:01.091,27.4,-12.76,17.44,-29.02,-64.27,22.07,0.28,0.5,0.85,1000
16:54:01.103,27.25,-13.55,17.67,-26.34,-62.99,20.06,0.29,0.48,0.86,1000
16:54:01.113,27.08,-14.32,17.88,-22.32,-60.24,18.29,0.29,0.46,0.87,1000
16:54:01.124,26.88,-15.05,18.07,-17.8,-56.22,15.98,0.3,0.43,0.87,1000
16:54:01.135,26.7,-15.73,18.24,-11.52,-51.83,13.78,0.31,0.44,0.88,1000
16:54:01.147,26.57,-16.33,18.38,-5.49,-46.59,11.89,0.32,0.45,0.88,1000
16:54:01.168,26.5,-16.88,18.5,1.4,-40.85,11.1,0.33,0.44,0.88,1000
16:54:01.169,26.51,-17.37,18.62,8.6,-35.12,10.79,0.33,0.45,0.86,1000
16:54:01.179,26.59,-17.81,18.74,15.98,-31.28,10.85,0.33,0.43,0.87,1000
16:54:01.190,26.71,-18.17,18.87,23.29,-26.28,11.95,0.31,0.42,0.86,1000
16:54:01.201,26.85,-18.42,18.99,29.33,-21.89,13.35,0.33,0.4,0.86,1000
16:54:01.212,27.05,-18.66,19.16,35.79,-17.26,15.12,0.33,0.41,0.86,1000
16:54:01.223,27.27,-18.82,19.34,40.91,-14.7,16.77,0.35,0.43,0.88,1000
16:54:01.234,27.58,-18.93,19.53,45.67,-10.12,17.8,0.33,0.47,0.86,1000
16:54:01.247,28.0,-19.0,19.73,48.29,-4.94,19.82,0.33,0.47,0.84,1000
16:54:01.255,28.45,-19.04,19.96,49.51,-1.46,22.5,0.34,0.49,0.83,1000
16:54:01.268,28.93,-19.06,20.23,50.85,0.12,25.67,0.34,0.48,0.83,1000
16:54:01.278,29.41,-19.04,20.52,51.4,0.79,28.72,0.33,0.48,0.82,1000
16:54:01.289,29.88,-19.0,20.85,50.3,1.34,30.98,0.31,0.48,0.83,1000
16:54:01.300,30.31,-18.94,21.2,49.21,0.43,33.23,0.33,0.5,0.83,1000
16:54:01.312,30.73,-18.93,21.58,47.5,-0.61,34.39,0.33,0.51,0.82,1000
16:54:01.322,31.12,-18.96,21.95,44.57,-1.4,34.7,0.35,0.5,0.82,1000
16:54:01.333,31.43,-19.06,22.33,41.16,-4.63,33.66,0.38,0.51,0.82,1000
16:54:01.347,31.74,-19.16,22.7,31.71,-10.24,33.05,0.31,0.52,0.82,1000
16:54:01.355,31.99,-19.32,23.07,27.99,-3.9,33.29,0.32,0.51,0.78,1000
16:54:01.368,32.17,-19.55,23.42,23.41,-6.71,31.52,0.39,0.55,0.76,1000
16:54:01.377,32.29,-19.86,23.75,16.16,-12.2,29.27,0.41,0.52,0.8,1000
16:54:01.388,32.32,-20.21,24.06,8.9,-15.55,26.89,0.41,0.52,0.77,1000
16:54:01.399,32.28,-20.61,24.35,5.06,-16.89,24.57,0.41,0.49,0.79,1000
16:54:01.410,32.17,-20.99,24.61,1.95,-16.95,22.38,0.39,0.49,0.77,1000
16:54:01.421,31.95,-21.41,24.84,-1.46,-17.32,20.3,0.41,0.48,0.77,1000
16:54:01.433,31.65,-21.85,25.06,-5.12,-16.95,18.11,0.43,0.46,0.76,1000
16:54:01.443,31.31,-22.28,25.24,-8.29,-16.4,15.12,0.44,0.45,0.77,1000
16:54:01.454,30.9,-22.74,25.39,-11.22,-14.15,12.26,0.44,0.45,0.77,1000
16:54:01.470,30.48,-23.15,25.51,-13.66,-11.59,8.35,0.44,0.45,0.78,1000
16:54:01.475,30.01,-23.55,25.59,-15.0,-9.76,4.94,0.46,0.45,0.77,1000
16:54:01.487,29.55,-23.94,25.62,-15.0,-8.54,1.34,0.46,0.44,0.79,1000
16:54:01.498,29.1,-24.28,25.62,-15.24,-6.95,-1.71,0.45,0.44,0.79,1000
16:54:01.509,28.65,-24.55,25.59,-15.18,-4.51,-3.72,0.44,0.43,0.79,1000
16:54:01.520,28.25,-24.75,25.54,-14.7,-2.74,-5.37,0.44,0.44,0.77,1000
16:54:01.531,27.9,-24.92,25.48,-14.45,-1.16,-6.59,0.44,0.44,0.77,1000
16:54:01.542,27.58,-25.07,25.4,-14.82,0.61,-7.5,0.44,0.45,0.76,1000
16:54:01.553,27.32,-25.18,25.31,-15.98,2.32,-8.29,0.43,0.45,0.77,1000
16:54:01.564,27.06,-25.27,25.22,-17.44,4.15,-8.41,0.44,0.45,0.76,1000
16:54:01.580,26.82,-25.33,25.13,-18.66,5.49,-8.6,0.43,0.45,0.77,1000
16:54:01.587,26.58,-25.36,25.03,-19.45,6.28,-8.96,0.44,0.45,0.78,1000
16:54:01.597,26.35,-25.37,24.93,-19.51,6.52,-8.96,0.43,0.45,0.79,1000
16:54:01.608,26.11,-25.36,24.83,-19.02,6.83,-9.21,0.43,0.44,0.8,1000
16:54:01.619,25.86,-25.31,24.73,-18.54,7.07,-9.09,0.42,0.44,0.81,1000
16:54:01.630,25.6,-25.23,24.63,-17.8,6.89,-8.78,0.41,0.43,0.81,1000
16:54:01.641,25.37,-25.13,24.53,-17.38,6.71,-9.15,0.41,0.44,0.82,1000
16:54:01.652,25.15,-24.99,24.43,-17.56,7.07,-9.21,0.41,0.44,0.82,1000
16:54:01.662,24.95,-24.87,24.33,-18.41,7.26,-9.33,0.41,0.44,0.82,1000
16:54:01.675,24.76,-24.73,24.23,-18.66,6.83,-9.57,0.4,0.44,0.83,1000
16:54:01.685,24.58,-24.6,24.12,-18.66,5.91,-9.7,0.39,0.44,0.83,1000
16:54:01.696,24.4,-24.46,24.01,-19.02,4.94,-10.06,0.39,0.44,0.84,1000
16:54:01.707,24.22,-24.3,23.9,-20.73,3.72,-10.06,0.39,0.43,0.85,1000
16:54:01.718,24.01,-24.15,23.79,-22.99,2.99,-10.37,0.39,0.44,0.85,1000
16:54:01.729,23.79,-24.03,23.68,-24.88,0.98,-10.06,0.38,0.44,0.85,1000
16:54:01.741,23.57,-23.91,23.57,-26.16,-1.04,-10.18,0.38,0.44,0.85,1000
16:54:01.752,23.36,-23.81,23.45,-26.77,-4.02,-9.88,0.38,0.43,0.86,1000
16:54:01.762,23.16,-23.72,23.35,-27.56,-6.46,-9.51,0.38,0.43,0.87,1000
16:54:01.782,22.91,-23.66,23.25,-28.11,-8.29,-8.66,0.38,0.42,0.88,1000
16:54:01.784,22.65,-23.59,23.15,-28.11,-10.43,-8.17,0.38,0.41,0.88,1000
16:54:01.795,22.39,-23.55,23.07,-26.77,-12.8,-7.93,0.38,0.41,0.88,1000
16:54:01.807,22.14,-23.56,22.98,-25.3,-14.63,-7.87,0.39,0.42,0.89,1000
16:54:01.817,21.92,-23.59,22.89,-23.35,-15.91,-7.74,0.39,0.42,0.9,1000
16:54:01.828,21.74,-23.63,22.81,-21.16,-16.83,-7.87,0.4,0.41,0.9,1000
16:54:01.839,21.56,-23.68,22.72,-18.41,-16.95,-7.32,0.39,0.39,0.91,1000
16:54:01.850,21.39,-23.73,22.65,-15.43,-17.01,-6.59,0.39,0.39,0.91,1000
16:54:01.861,21.26,-23.77,22.58,-11.52,-17.13,-5.79,0.39,0.4,0.91,1000
16:54:01.872,21.16,-23.77,22.52,-8.41,-16.65,-4.94,0.39,0.39,0.91,1000
16:54:01.883,21.09,-23.79,22.47,-5.3,-16.1,-3.17,0.38,0.4,0.88,1000
16:54:01.894,21.03,-23.81,22.44,-4.21,-15.79,-0.73,0.39,0.37,0.9,1000
16:54:01.905,20.99,-23.84,22.44,-6.28,-14.39,-0.24,0.41,0.37,0.85,1000
16:54:01.917,20.98,-23.94,22.43,-7.8,-15.3,-0.98,0.43,0.39,0.86,1000
16:54:01.927,20.97,-24.09,22.42,-10.0,-15.61,-1.77,0.43,0.4,0.83,1000
16:54:01.943,20.96,-24.28,22.4,-11.89,-15.98,-2.8,0.43,0.41,0.87,1000
16:54:01.950,20.92,-24.48,22.36,-14.09,-16.4,-3.6,0.42,0.37,0.85,1000
16:54:01.959,20.78,-24.67,22.32,-16.77,-16.46,-4.27,0.42,0.4,0.87,1000
16:54:01.971,20.64,-24.86,22.27,-17.26,-19.02,-4.88,0.47,0.38,0.87,1000
16:54:01.982,20.53,-25.12,22.22,-20.67,-18.48,-5.73,0.44,0.34,0.91,1000
16:54:01.993,20.36,-25.39,22.16,-18.17,-19.33,-5.67,0.4,0.41,0.95,1000
16:54:02.004,20.1,-25.6,22.1,-16.77,-20.3,-5.43,0.39,0.42,0.99,1000
16:54:02.015,19.94,-25.83,22.04,-23.17,-22.2,-4.57,0.45,0.48,0.69,1000
16:54:02.026,19.72,-26.04,22.0,-20.49,-23.48,-3.66,0.48,0.24,0.91,1000
16:54:02.039,19.5,-26.27,21.96,-18.6,-18.84,-2.74,0.4,0.3,0.86,1000
16:54:02.048,19.32,-26.48,21.94,-25.06,-20.85,-1.52,0.46,0.37,0.81,1000
16:54:02.058,19.2,-26.68,21.92,-21.59,-25.55,-1.28,0.46,0.35,0.9,1000
16:54:02.073,19.02,-26.88,21.92,-13.41,-23.35,-0.49,0.39,0.34,0.92,1000
16:54:02.089,18.84,-27.06,21.91,-6.83,-22.07,0.0,0.43,0.23,0.94,1000
16:54:02.092,18.61,-27.22,21.91,-14.39,-25.06,-0.24,0.44,0.35,0.9,1000
16:54:02.103,18.52,-27.43,21.92,-14.76,-23.84,0.49,0.48,0.24,0.83,1000
16:54:02.114,18.41,-27.69,21.92,-13.78,-18.66,0.73,0.48,0.27,0.85,1000
16:54:02.125,18.29,-27.9,21.93,-23.78,-22.2,1.22,0.49,0.49,0.72,1000
16:54:02.136,18.22,-28.16,21.95,-20.85,-22.38,1.28,0.45,0.28,0.98,1000
16:54:02.147,18.2,-28.34,21.97,-23.54,-18.84,2.93,0.38,0.26,0.66,1000
16:54:02.158,18.12,-28.51,21.99,-20.79,-15.85,2.32,0.54,0.29,0.82,1000
16:54:02.169,18.03,-28.7,22.02,-20.0,-13.84,2.5,0.48,0.34,0.8,1000
16:54:02.180,17.9,-28.86,22.05,-21.16,-9.15,2.8,0.48,0.37,0.91,1000
16:54:02.195,17.74,-28.99,22.08,-13.29,-9.94,3.72,0.48,0.23,1.11,1000
16:54:02.203,17.46,-29.08,22.12,-25.73,-11.22,2.13,0.46,0.37,0.9,1000
16:54:02.213,17.12,-29.18,22.14,-25.61,-13.41,1.4,0.55,0.11,0.85,1000
16:54:02.225,16.9,-29.25,22.15,-25.3,-11.22,-0.18,0.47,0.14,1.09,1000
16:54:02.235,16.53,-29.2,22.16,-20.55,-10.61,-0.37,0.45,0.35,0.81,1000
16:54:02.246,16.24,-29.29,22.16,-17.07,-9.09,-0.49,0.46,0.31,0.9,1000
16:54:02.257,15.99,-29.33,22.15,-17.56,-8.17,-0.98,0.52,0.27,0.8,1000
16:54:02.268,15.82,-29.38,22.13,-17.38,-7.74,-2.13,0.54,0.23,0.86,1000
16:54:02.281,15.65,-29.39,22.11,-16.52,-5.61,-2.62,0.51,0.27,0.81,1000
16:54:02.292,15.5,-29.43,22.08,-16.89,-2.44,-2.99,0.47,0.31,0.87,1000
16:54:02.301,15.36,-29.43,22.04,-17.01,0.12,-3.23,0.5,0.31,0.81,1000
16:54:02.312,15.25,-29.44,22.0,-17.87,2.38,-3.41,0.52,0.27,0.88,1000
16:54:02.322,15.11,-29.38,21.97,-20.18,5.73,-2.38,0.54,0.25,0.94,1000
16:54:02.335,15.02,-29.35,21.93,-11.95,3.9,-3.05,0.41,0.3,0.94,1000
16:54:02.346,14.94,-29.24,21.88,-4.88,3.78,-4.76,0.52,0.14,1.0,1000
16:54:02.355,14.89,-29.26,21.84,-6.52,4.21,-4.33,0.47,0.23,0.95,1000
16:54:02.367,14.85,-29.16,21.8,-8.96,5.79,-4.45,0.52,0.17,0.79,1000
16:54:02.377,14.86,-29.11,21.75,-7.99,4.02,-4.21,0.52,0.28,0.93,1000
16:54:02.401,14.85,-29.01,21.7,-7.2,5.18,-3.9,0.47,0.36,0.82,1000
16:54:02.401,14.9,-28.95,21.66,-7.07,6.59,-4.15,0.47,0.33,0.92,1000
16:54:02.412,14.99,-28.85,21.61,-4.57,5.98,-3.78,0.53,0.31,0.82,1000
16:54:02.422,15.14,-28.8,21.57,-0.61,3.41,-4.39,0.52,0.29,0.93,1000
16:54:02.437,15.28,-28.73,21.53,3.84,1.04,-4.39,0.5,0.31,0.88,1000
16:54:02.443,15.49,-28.69,21.48,9.94,-2.68,-4.33,0.49,0.3,0.96,1000
16:54:02.458,15.68,-28.62,21.43,15.24,-4.82,-3.6,0.5,0.29,0.9,1000
16:54:02.465,15.88,-28.59,21.39,19.94,-6.89,-3.48,0.5,0.28,0.96,1000
16:54:02.477,16.08,-28.54,21.36,24.7,-8.96,-3.23,0.51,0.29,0.91,1000
16:54:02.494,16.34,-28.55,21.32,27.44,-11.77,-2.87,0.51,0.29,0.93,1000
16:54:02.499,16.63,-28.6,21.3,27.68,-18.35,-0.3,0.5,0.27,1.12,1000
16:54:02.510,17.01,-28.69,21.29,36.34,-7.44,1.34,0.49,0.34,0.89,1000
16:54:02.521,17.41,-28.71,21.32,32.8,-7.74,4.27,0.5,0.35,0.81,1000
16:54:02.532,17.85,-28.74,21.38,29.88,-5.67,7.87,0.47,0.35,0.85,1000
16:54:02.543,18.28,-28.73,21.48,28.17,-1.1,10.61,0.49,0.36,0.8,1000
16:54:02.554,18.72,-28.76,21.62,24.82,1.16,14.09,0.52,0.35,0.83,1000
16:54:02.565,19.07,-28.74,21.78,19.88,3.48,16.52,0.52,0.35,0.8,1000
16:54:02.577,19.36,-28.74,21.98,14.94,5.12,18.17,0.5,0.36,0.82,1000
16:54:02.586,19.6,-28.7,22.18,10.73,6.46,18.84,0.51,0.37,0.79,1000
16:54:02.602,19.82,-28.73,22.39,3.05,1.89,17.99,0.56,0.24,0.95,1000
16:54:02.609,20.0,-28.71,22.59,0.67,4.76,17.8,0.52,0.37,0.79,1000
16:54:02.619,20.13,-28.72,22.78,1.04,6.52,17.44,0.4,0.52,0.82,1000
16:54:02.634,20.2,-28.74,22.97,-2.44,5.0,16.46,0.49,0.35,0.78,1000
16:54:02.642,20.17,-28.78,23.14,-4.94,3.6,15.55,0.59,0.22,0.81,1000
16:54:02.653,20.06,-28.81,23.32,-8.41,0.73,15.24,0.53,0.27,0.81,1000
16:54:02.664,19.88,-28.86,23.48,-10.79,1.16,15.06,0.44,0.36,0.83,1000
16:54:02.676,19.68,-28.88,23.65,-11.46,1.65,14.76,0.46,0.35,0.81,1000
16:54:02.686,19.47,-28.89,23.81,-10.79,1.77,14.51,0.52,0.28,0.82,1000
16:54:02.702,19.13,-28.92,23.96,-16.28,7.32,14.02,0.51,0.1,0.74,1000
16:54:02.708,18.6,-28.97,24.11,-24.33,8.96,12.8,0.5,0.26,0.77,1000
16:54:02.721,18.05,-29.05,24.24,-26.16,10.24,11.16,0.44,0.3,0.85,1000
16:54:02.730,17.47,-29.04,24.35,-29.63,12.74,8.29,0.51,0.15,0.81,1000
16:54:02.741,16.89,-29.03,24.43,-26.1,16.71,6.16,0.5,0.06,0.92,1000
16:54:02.753,16.23,-28.97,24.48,-29.39,11.95,3.23,0.49,0.25,0.81,1000
16:54:02.764,15.63,-28.91,24.5,-27.13,6.52,0.85,0.46,0.25,0.91,1000
16:54:02.774,15.1,-28.83,24.5,-22.74,3.54,-1.4,0.5,0.2,0.86,1000
16:54:02.785,14.66,-28.81,24.48,-18.78,0.24,-3.29,0.52,0.21,0.9,1000
16:54:02.796,14.31,-28.84,24.43,-17.07,-3.96,-4.94,0.52,0.27,0.86,1000
16:54:02.810,14.1,-28.96,24.37,-16.89,-8.66,-6.22,0.51,0.3,0.88,1000
16:54:02.817,13.98,-29.11,24.29,-15.55,-12.13,-7.2,0.52,0.29,0.83,1000
16:54:02.829,13.94,-29.33,24.21,-13.48,-14.7,-7.38,0.52,0.28,0.85,1000
16:54:02.841,13.92,-29.54,24.13,-13.35,-14.94,-7.38,0.52,0.27,0.83,1000
16:54:02.850,13.9,-29.77,24.06,-15.0,-13.54,-6.16,0.52,0.29,0.84,1000
16:54:02.861,13.88,-29.95,24.0,-17.56,-9.82,-4.51,0.53,0.29,0.83,1000
16:54:02.872,13.86,-30.1,23.96,-19.57,-5.18,-2.5,0.52,0.27,0.85,1000
16:54:02.884,13.79,-30.16,23.94,-20.3,-0.55,-0.18,0.51,0.27,0.84,1000
16:54:02.894,13.7,-30.14,23.95,-18.96,2.87,1.77,0.49,0.26,0.87,1000
16:54:02.906,13.6,-29.99,23.98,-12.38,6.4,4.76,0.48,0.26,0.89,1000
16:54:02.917,13.57,-29.74,24.05,-1.34,10.79,8.78,0.47,0.25,0.94,1000
16:54:02.927,13.63,-29.39,24.17,11.71,16.34,12.87,0.49,0.24,0.92,1000
16:54:02.939,13.79,-29.01,24.33,24.63,20.24,16.71,0.48,0.23,0.94,1000
16:54:02.952,14.05,-28.6,24.53,34.76,23.78,19.27,0.48,0.25,0.91,1000
16:54:02.961,14.39,-28.2,24.75,41.22,25.49,21.4,0.47,0.23,0.87,1000
16:54:02.972,14.72,-27.87,24.99,40.98,25.67,21.89,0.46,0.21,0.83,1000
16:54:02.983,14.98,-27.62,25.23,34.39,24.15,20.55,0.47,0.21,0.81,1000
16:54:02.994,15.13,-27.48,25.44,23.66,20.18,17.01,0.47,0.2,0.8,1000
16:54:03.006,15.13,-27.4,25.6,12.68,15.55,12.74,0.46,0.19,0.83,1000
16:54:03.016,14.96,-27.36,25.72,2.07,10.73,8.29,0.47,0.19,0.85,1000
16:54:03.026,14.63,-27.36,25.79,-5.37,5.67,4.02,0.47,0.19,0.87,1000
16:54:03.037,14.26,-27.38,25.81,-8.84,0.0,0.18,0.47,0.2,0.89,1000
16:54:03.050,13.96,-27.39,25.8,-8.48,-3.96,-2.2,0.47,0.19,0.95,1000
16:54:03.060,13.65,-27.36,25.77,-4.94,-6.77,-3.6,0.48,0.22,1.0,1000
16:54:03.071,13.44,-27.31,25.73,0.37,-8.9,-4.63,0.49,0.25,0.98,1000
16:54:03.081,13.34,-27.34,25.67,1.28,-10.79,-5.18,0.5,0.27,0.89,1000
16:54:03.092,13.42,-27.49,25.61,-11.22,-14.82,-6.89,0.61,0.16,0.75,1000
16:54:03.108,13.56,-27.77,25.54,-13.17,-5.43,-6.1,0.49,0.46,0.82,1000
16:54:03.115,13.62,-28.1,25.48,-19.63,0.37,-4.88,0.45,0.48,0.79,1000
16:54:03.125,13.62,-28.4,25.44,-30.98,3.11,-1.52,0.54,0.25,0.75,1000
16:54:03.136,13.66,-28.6,25.43,-43.54,3.29,0.85,0.59,0.16,0.75,1000
16:54:03.148,13.54,-28.7,25.45,-44.09,5.37,3.41,0.48,0.27,0.85,1000
16:54:03.158,13.3,-28.69,25.51,-36.77,9.09,5.79,0.4,0.32,0.92,1000
16:54:03.175,12.97,-28.53,25.58,-26.28,9.7,7.2,0.45,0.21,0.97,1000
16:54:03.181,12.63,-28.31,25.66,-14.76,5.43,7.32,0.51,0.12,0.98,1000
16:54:03.191,12.31,-28.07,25.73,-4.15,0.37,6.22,0.49,0.13,1.02,1000
16:54:03.202,12.02,-27.84,25.79,8.9,-3.72,4.51,0.46,0.18,1.03,1000
16:54:03.216,11.86,-27.69,25.83,14.76,-10.0,1.65,0.5,0.11,1.02,1000
16:54:03.225,11.84,-27.65,25.84,26.71,-11.77,0.06,0.51,0.17,0.97,1000
16:54:03.237,11.96,-27.68,25.83,30.79,-14.45,-1.4,0.48,0.24,0.95,1000
16:54:03.246,12.21,-27.76,25.81,35.12,-17.13,-2.2,0.51,0.24,0.95,1000
16:54:03.258,12.43,-28.02,25.77,35.49,-20.91,-6.04,0.5,0.21,0.96,1000
16:54:03.269,12.63,-28.26,25.68,29.88,-31.22,-9.15,0.53,0.2,0.96,1000
16:54:03.282,12.83,-28.49,25.59,23.66,-35.3,-7.44,0.51,0.18,0.91,1000
16:54:03.291,13.01,-28.78,25.52,19.45,-31.04,-5.91,0.44,0.21,0.85,1000
16:54:03.302,13.22,-29.08,25.46,14.02,-31.16,-4.88,0.48,0.24,0.82,1000
16:54:03.318,13.46,-29.43,25.41,10.85,-29.15,-3.6,0.52,0.26,0.8,1000
16:54:03.323,13.68,-29.81,25.38,7.07,-26.71,-2.5,0.53,0.28,0.79,1000
16:54:03.335,13.9,-30.2,25.36,4.51,-23.48,-1.77,0.56,0.32,0.78,1000
16:54:03.353,14.19,-30.6,25.34,2.13,-20.49,-0.85,0.52,0.3,0.77,1000
16:54:03.357,14.42,-30.93,25.34,-0.85,-18.17,0.73,0.53,0.3,0.75,1000
16:54:03.370,14.64,-31.25,25.35,-4.76,-16.65,1.95,0.52,0.31,0.74,1000
16:54:03.379,14.8,-31.56,25.37,-7.5,-16.46,2.32,0.54,0.3,0.77,1000
16:54:03.390,14.93,-31.84,25.4,-8.9,-16.65,2.5,0.55,0.3,0.79,1000
16:54:03.401,15.01,-32.1,25.43,-7.87,-17.26,2.32,0.54,0.28,0.81,1000
16:54:03.423,15.04,-32.32,25.45,-5.55,-18.17,2.2,0.54,0.25,0.82,1000
16:54:03.423,15.0,-32.51,25.47,-2.68,-19.82,1.59,0.54,0.23,0.82,1000
16:54:03.434,14.92,-32.72,25.49,-0.61,-21.34,0.37,0.55,0.24,0.81,1000
16:54:03.444,14.85,-32.96,25.49,0.06,-21.34,-0.67,0.57,0.24,0.79,1000
16:54:03.456,14.79,-33.25,25.47,-1.16,-20.37,-1.83,0.56,0.24,0.78,1000
16:54:03.467,14.7,-33.53,25.45,-3.35,-17.07,-2.87,0.56,0.23,0.78,1000
16:54:03.481,14.58,-33.78,25.41,-5.06,-13.17,-3.41,0.56,0.22,0.78,1000
16:54:03.488,14.42,-33.97,25.38,-5.79,-9.21,-3.6,0.56,0.22,0.78,1000
16:54:03.500,14.23,-34.11,25.33,-5.43,-5.12,-4.21,0.56,0.21,0.79,1000
16:54:03.520,14.05,-34.19,25.29,-3.96,-2.13,-4.94,0.57,0.21,0.8,1000
16:54:03.525,13.86,-34.25,25.23,-1.77,1.4,-5.73,0.57,0.21,0.8,1000
16:54:03.533,13.74,-34.25,25.16,1.22,4.82,-7.13,0.58,0.21,0.8,1000
16:54:03.544,13.62,-34.22,25.07,3.84,8.72,-8.48,0.59,0.21,0.82,1000
16:54:03.556,13.55,-34.17,24.97,6.89,12.62,-9.76,0.58,0.21,0.81,1000
16:54:03.565,13.51,-34.05,24.86,9.09,15.85,-11.1,0.56,0.21,0.81,1000
16:54:03.576,13.49,-33.87,24.73,11.16,18.35,-12.44,0.54,0.2,0.81,1000
16:54:03.589,13.5,-33.64,24.59,13.96,19.51,-13.05,0.53,0.21,0.82,1000
16:54:03.598,13.55,-33.35,24.44,16.52,20.06,-12.93,0.53,0.23,0.83,1000
16:54:03.613,13.68,-33.04,24.3,19.51,20.0,-12.68,0.52,0.25,0.85,1000
16:54:03.621,13.89,-32.69,24.17,21.16,19.33,-11.77,0.52,0.26,0.85,1000
16:54:03.632,14.13,-32.33,24.05,21.4,18.11,-9.94,0.5,0.27,0.85,1000
16:54:03.642,14.4,-31.96,23.95,20.91,17.01,-7.01,0.5,0.27,0.85,1000
16:54:03.653,14.66,-31.6,23.88,19.51,16.1,-4.39,0.5,0.28,0.85,1000
16:54:03.665,14.91,-31.27,23.85,18.35,15.61,-1.71,0.51,0.29,0.87,1000
16:54:03.679,15.13,-30.98,23.84,17.93,13.17,0.24,0.56,0.24,0.85,1000
16:54:03.687,15.27,-30.76,23.84,19.57,7.62,-1.34,0.44,0.3,0.86,1000
16:54:03.700,15.52,-30.45,23.8,21.16,2.87,-6.28,0.49,0.32,0.89,1000
16:54:03.711,15.83,-30.24,23.72,19.45,1.16,-8.17,0.54,0.33,0.88,1000
16:54:03.731,16.14,-30.15,23.63,13.96,0.79,-7.68,0.53,0.36,0.87,1000
16:54:03.731,16.5,-30.1,23.56,7.68,0.55,-5.55,0.52,0.38,0.82,1000
16:54:03.741,16.86,-30.06,23.51,2.13,-1.34,-1.95,0.51,0.38,0.83,1000
16:54:03.753,17.16,-30.02,23.51,-1.28,-2.62,1.46,0.5,0.38,0.83,1000
16:54:03.764,17.4,-29.97,23.54,-3.05,-4.57,5.18,0.5,0.38,0.85,1000
16:54:03.774,17.67,-29.91,23.62,-3.72,-6.4,9.02,0.51,0.38,0.84,1000
16:54:03.789,17.87,-29.89,23.73,-4.02,-8.9,12.01,0.5,0.36,0.84,1000
16:54:03.797,18.03,-29.91,23.88,-5.18,-12.44,14.57,0.5,0.35,0.81,1000
16:54:03.809,18.15,-29.98,24.05,-8.35,-15.49,17.2,0.5,0.35,0.79,1000
16:54:03.820,18.2,-30.12,24.26,-13.35,-17.93,20.67,0.51,0.33,0.79,1000
16:54:03.831,18.17,-30.32,24.5,-18.29,-19.63,24.21,0.53,0.32,0.8,1000
16:54:03.840,18.02,-30.59,24.78,-21.46,-20.49,26.65,0.54,0.31,0.8,1000
16:54:03.881,17.83,-30.89,25.08,-22.56,-21.28,27.56,0.53,0.31,0.81,1000
16:54:03.881,17.61,-31.16,25.38,-22.13,-21.59,27.44,0.53,0.29,0.8,1000
16:54:03.881,17.37,-31.41,25.68,-20.73,-22.62,26.59,0.52,0.27,0.8,1000
16:54:03.884,17.09,-31.65,25.97,-19.45,-22.68,25.98,0.53,0.25,0.79,1000
16:54:03.896,16.76,-31.92,26.25,-18.96,-22.56,25.67,0.53,0.24,0.79,1000
16:54:03.909,16.42,-32.2,26.53,-18.78,-23.17,25.43,0.55,0.23,0.78,1000
16:54:03.922,16.05,-32.52,26.81,-19.27,-23.78,24.94,0.56,0.22,0.79,1000
16:54:03.932,15.64,-32.87,27.09,-20.12,-24.7,24.7,0.57,0.21,0.79,1000
16:54:03.941,15.21,-33.25,27.36,-21.4,-26.16,24.7,0.57,0.19,0.78,1000
16:54:03.951,14.75,-33.63,27.63,-22.68,-28.6,24.7,0.55,0.19,0.78,1000
16:54:03.962,14.26,-34.01,27.9,-24.02,-31.34,24.45,0.55,0.17,0.78,1000
16:54:03.973,13.77,-34.37,28.17,-25.0,-33.9,24.39,0.55,0.16,0.78,1000
16:54:03.984,13.21,-34.76,28.44,-25.85,-36.83,24.02,0.55,0.15,0.77,1000
16:54:03.995,12.62,-35.18,28.7,-26.83,-39.94,23.78,0.57,0.14,0.77,1000
16:54:04.007,12.07,-35.64,28.96,-28.23,-41.95,22.32,0.61,0.15,0.78,1000
16:54:04.016,11.47,-36.17,29.19,-29.45,-42.13,20.55,0.64,0.13,0.78,1000
16:54:04.035,10.82,-36.78,29.41,-30.73,-41.1,18.05,0.67,0.12,0.76,1000
16:54:04.038,10.27,-37.37,29.58,-31.22,-39.09,15.55,0.68,0.12,0.76,1000
16:54:04.050,9.64,-38.08,29.74,-30.73,-34.21,11.52,0.69,0.13,0.75,1000
16:54:04.060,9.12,-38.72,29.85,-30.0,-29.63,8.17,0.69,0.12,0.73,1000
16:54:04.073,8.64,-39.31,29.92,-28.66,-23.96,4.02,0.69,0.12,0.7,1000
16:54:04.083,8.21,-39.82,29.95,-27.26,-17.13,0.43,0.69,0.13,0.68,1000
16:54:04.095,7.82,-40.3,29.94,-26.1,-8.35,-2.74,0.69,0.13,0.67,1000
16:54:04.110,7.48,-40.66,29.89,-24.02,0.3,-6.28,0.69,0.13,0.68,1000
16:54:04.115,7.18,-40.94,29.81,-19.94,8.35,-9.39,0.71,0.12,0.73,1000
16:54:04.140,6.97,-41.1,29.69,-14.82,15.49,-13.23,0.71,0.14,0.73,1000
16:54:04.142,6.88,-41.12,29.53,-8.66,19.63,-16.59,0.68,0.15,0.76,1000
16:54:04.149,6.87,-40.99,29.34,-1.89,22.13,-18.9,0.67,0.15,0.78,1000
16:54:04.160,6.96,-40.76,29.12,4.7,22.62,-20.98,0.66,0.15,0.81,1000
16:54:04.170,7.09,-40.49,28.9,10.55,21.71,-23.17,0.65,0.15,0.82,1000
16:54:04.182,7.3,-40.12,28.61,15.37,19.57,-25.3,0.63,0.15,0.83,1000
16:54:04.192,7.52,-39.74,28.32,20.0,16.4,-26.83,0.62,0.15,0.82,1000
16:54:04.203,7.78,-39.4,28.02,23.54,12.5,-27.56,0.6,0.15,0.83,1000
16:54:04.215,8.04,-39.08,27.71,25.85,7.8,-27.56,0.59,0.15,0.82,1000
16:54:04.245,8.29,-38.85,27.44,26.95,3.29,-27.2,0.59,0.16,0.82,1000
16:54:04.247,8.61,-38.61,27.12,27.01,-1.89,-26.28,0.58,0.16,0.82,1000
16:54:04.255,8.9,-38.38,26.84,25.3,-6.16,-24.76,0.58,0.17,0.82,1000
16:54:04.258,9.16,-38.25,26.57,22.13,-9.51,-22.8,0.58,0.17,0.81,1000
16:54:04.269,9.39,-38.11,26.33,18.17,-12.56,-20.73,0.58,0.18,0.81,1000
16:54:04.281,9.6,-38.04,26.12,14.15,-14.76,-18.66,0.59,0.2,0.8,1000
16:54:04.292,9.82,-38.02,25.92,11.16,-16.71,-16.89,0.6,0.22,0.8,1000
16:54:04.303,10.06,-38.04,25.74,9.33,-18.6,-15.06,0.61,0.23,0.8,1000
16:54:04.315,10.32,-38.11,25.59,8.78,-19.15,-13.17,0.6,0.23,0.77,1000
16:54:04.324,10.56,-38.21,25.45,9.09,-19.63,-10.91,0.6,0.21,0.76,1000
16:54:04.342,10.78,-38.34,25.34,9.33,-19.51,-8.41,0.61,0.22,0.75,1000
16:54:04.347,11.01,-38.5,25.27,9.15,-18.11,-5.18,0.63,0.23,0.74,1000
16:54:04.358,11.22,-38.68,25.23,7.87,-16.95,-1.4,0.59,0.22,0.73,1000
16:54:04.368,11.43,-38.82,25.23,6.34,-15.67,2.5,0.6,0.23,0.73,1000
16:54:04.380,11.63,-38.96,25.28,5.85,-15.67,6.89,0.61,0.23,0.73,1000
16:54:04.390,11.8,-39.06,25.37,4.94,-16.34,11.22,0.61,0.22,0.74,1000
16:54:04.403,11.92,-39.16,25.52,3.84,-16.77,15.12,0.65,0.24,0.77,1000
16:54:04.413,12.09,-39.3,25.7,5.24,-23.78,16.59,0.76,0.35,0.85,1000
16:54:04.424,12.4,-39.5,25.88,7.93,-28.84,16.1,0.6,0.29,0.8,1000
16:54:04.440,12.76,-39.69,26.05,12.32,-35.12,16.4,0.64,0.26,0.77,1000
16:54:04.446,13.06,-39.97,26.25,17.74,-40.85,19.27,0.66,0.26,0.8,1000
16:54:04.457,13.37,-40.27,26.47,21.95,-43.17,22.13,0.66,0.26,0.78,1000
16:54:04.467,13.73,-40.6,26.73,25.67,-46.52,25.24,0.67,0.29,0.75,1000
16:54:04.479,14.15,-41.0,27.02,27.26,-49.63,27.07,0.69,0.3,0.73,1000
16:54:04.490,14.59,-41.48,27.33,26.28,-52.38,29.39,0.71,0.28,0.73,1000
16:54:04.500,14.94,-42.04,27.66,23.54,-54.57,32.62,0.73,0.28,0.71,1000
16:54:04.511,15.22,-42.68,28.04,20.49,-56.89,35.91,0.73,0.27,0.7,1000
16:54:04.523,15.44,-43.36,28.45,18.23,-59.76,39.27,0.72,0.27,0.68,1000
16:54:04.534,15.63,-44.06,28.9,16.59,-62.5,42.62,0.73,0.28,0.69,1000
16:54:04.549,15.81,-44.74,29.38,14.7,-64.88,45.18,0.73,0.29,0.67,1000
16:54:04.556,15.97,-45.44,29.89,12.07,-68.17,47.38,0.75,0.28,0.67,1000
16:54:04.568,16.05,-46.18,30.42,8.96,-71.28,49.7,0.77,0.26,0.66,1000
16:54:04.577,16.05,-46.96,30.98,4.76,-73.9,52.5,0.8,0.26,0.65,1000
16:54:04.593,15.97,-47.81,31.57,0.55,-75.43,54.76,0.82,0.28,0.64,1000
16:54:04.604,15.88,-48.7,32.18,-4.02,-76.46,56.04,0.9,0.29,0.6,1000
16:54:04.618,15.75,-49.69,32.79,-6.4,-74.63,56.34,0.98,0.29,0.6,1000
16:54:04.625,15.52,-50.69,33.35,-7.01,-70.0,55.55,1.0,0.25,0.6,1000
16:54:04.637,15.18,-51.83,34.01,-5.49,-62.74,53.17,0.98,0.18,0.58,1000
16:54:04.655,14.75,-52.85,34.58,-2.8,-53.54,50.0,1.01,0.16,0.58,1000
16:54:04.655,14.28,-53.77,35.11,0.3,-41.83,47.13,1.01,0.16,0.59,1000
16:54:04.666,13.73,-54.63,35.62,1.46,-30.67,44.57,0.99,0.14,0.53,1000
16:54:04.678,13.16,-55.4,36.1,-0.55,-21.4,42.01,0.93,0.12,0.51,1000
16:54:04.688,12.66,-55.97,36.54,-6.4,-14.51,39.15,0.89,0.1,0.49,1000
16:54:04.699,12.02,-56.46,36.97,-12.74,-10.0,39.15,0.86,0.08,0.5,1000
16:54:04.711,11.28,-56.86,37.41,-16.83,-6.4,39.82,0.86,0.09,0.5,1000
16:54:04.720,10.61,-57.13,37.85,-18.05,-2.26,41.04,0.86,0.09,0.51,1000
16:54:04.731,9.93,-57.32,38.3,-16.95,1.89,41.83,0.87,0.07,0.52,1000
16:54:04.746,9.26,-57.43,38.77,-15.55,5.3,42.93,0.86,0.06,0.53,1000
16:54:04.756,8.64,-57.45,39.25,-15.24,6.52,43.48,0.83,0.08,0.52,1000
16:54:04.764,8.05,-57.45,39.72,-16.65,4.02,43.11,0.84,0.05,0.55,1000
16:54:04.775,7.43,-57.4,40.19,-16.4,1.59,42.87,0.83,0.03,0.53,1000
16:54:04.787,6.9,-57.4,40.62,-15.49,-1.16,42.8,0.81,0.02,0.54,1000
16:54:04.797,6.26,-57.39,41.13,-14.57,-4.33,42.32,0.8,0.03,0.52,1000
16:54:04.812,5.66,-57.43,41.6,-12.68,-6.46,42.2,0.8,0.0,0.53,1000
16:54:04.819,5.09,-57.49,42.06,-10.61,-8.11,42.13,0.79,-0.01,0.51,1000
16:54:04.831,4.47,-57.57,42.52,-10.37,-9.82,42.07,0.81,-0.01,0.51,1000
16:54:04.849,3.86,-57.67,42.98,-9.7,-10.18,42.32,0.8,-0.03,0.51,1000
16:54:04.852,3.3,-57.78,43.41,-8.84,-11.89,42.38,0.8,-0.03,0.51,1000
16:54:04.863,2.71,-57.92,43.92,-6.83,-13.17,43.05,0.79,-0.02,0.52,1000
16:54:04.878,2.17,-58.01,44.4,-4.82,-15.67,43.41,0.79,-0.05,0.53,1000
16:54:04.887,1.68,-58.09,44.88,-2.13,-18.72,43.84,0.79,-0.07,0.53,1000
16:54:04.896,1.17,-58.17,45.36,0.43,-22.26,44.45,0.79,-0.11,0.54,1000
16:54:04.907,0.59,-58.25,45.85,2.5,-25.3,44.51,0.81,-0.1,0.51,1000
16:54:04.920,-0.02,-58.39,46.34,4.7,-28.17,43.6,0.79,-0.12,0.52,1000
16:54:04.929,-0.61,-58.61,46.81,6.04,-30.67,42.38,0.81,-0.12,0.49,1000
16:54:04.940,-1.22,-58.89,47.27,8.05,-31.95,40.49,0.82,-0.11,0.47,1000
16:54:04.957,-1.75,-59.27,47.7,10.24,-32.99,36.77,0.82,-0.12,0.45,1000
16:54:04.962,-2.12,-59.69,48.09,12.56,-33.23,33.41,0.86,-0.13,0.45,1000
16:54:04.973,-2.6,-60.14,48.44,14.21,-33.29,29.76,0.87,-0.15,0.46,1000
16:54:04.986,-3.12,-60.59,48.75,12.07,-35.24,27.01,0.81,-0.13,0.43,1000
16:54:04.995,-3.48,-60.99,49.02,8.66,-39.45,26.16,0.81,-0.22,0.49,1000
16:54:05.006,-4.05,-61.35,49.34,12.07,-45.43,29.88,0.84,0.01,0.34,1000
16:54:05.017,-4.56,-61.71,49.69,8.6,-48.54,34.76,0.81,-0.05,0.39,1000
16:54:05.028,-4.91,-62.15,50.09,10.98,-50.55,39.76,0.82,-0.13,0.36,1000
16:54:05.039,-5.22,-62.69,50.55,11.83,-50.49,44.45,0.82,-0.1,0.37,1000
16:54:05.054,-5.47,-63.22,51.05,10.24,-51.89,46.83,0.84,-0.14,0.36,1000
16:54:05.062,-5.59,-63.76,51.57,12.87,-48.54,48.9,0.98,-0.05,0.49,1000
16:54:05.072,-5.59,-64.43,52.12,19.76,-42.01,51.89,1.03,-0.17,0.57,1000
16:54:05.083,-5.71,-64.91,52.69,26.46,-32.93,52.99,1.03,-0.23,0.26,1000
16:54:05.094,-5.82,-65.41,53.22,33.35,-38.54,52.87,1.05,-0.16,0.59,1000
16:54:05.106,-5.7,-65.83,53.83,40.61,-39.82,47.26,0.96,-0.12,0.4,1000
16:54:05.120,-5.5,-66.13,54.31,41.34,-38.54,39.45,0.9,-0.1,0.45,1000
16:54:05.127,-5.26,-66.41,54.71,45.0,-38.72,32.8,0.81,-0.11,0.28,1000
16:54:05.139,-5.05,-66.78,55.03,52.99,-41.22,24.88,0.81,-0.14,0.41,1000
16:54:05.151,-4.85,-67.04,55.28,58.11,-39.09,19.82,0.93,-0.13,0.44,1000
16:54:05.164,-4.7,-67.29,55.47,62.5,-35.49,15.18,0.93,-0.2,0.46,1000
16:54:05.171,-4.62,-67.52,55.62,62.44,-36.16,12.07,0.98,-0.2,0.34,1000
16:54:05.183,-4.69,-67.78,55.73,60.37,-35.79,7.8,0.97,-0.2,0.44,1000
16:54:05.194,-4.78,-68.03,55.79,56.89,-38.05,3.35,0.94,-0.19,0.29,1000
16:54:05.208,-4.87,-68.23,55.81,48.78,-32.44,-0.73,0.92,-0.27,0.49,1000
16:54:05.215,-5.1,-68.33,55.8,31.46,-16.16,-1.4,1.04,-0.2,0.28,1000
16:54:05.227,-5.56,-68.42,55.78,23.23,-10.61,-1.95,0.96,-0.19,0.22,1000
16:54:05.240,-5.91,-68.67,55.75,18.54,-5.43,-3.48,0.94,-0.12,0.36,1000
16:54:05.250,-6.17,-68.81,55.7,12.13,0.67,-5.91,1.01,-0.11,0.24,1000
16:54:05.261,-6.38,-69.05,55.63,7.62,5.67,-7.38,1.06,-0.1,0.33,1000
16:54:05.270,-6.6,-69.2,55.54,4.82,10.0,-8.6,1.03,-0.13,0.29,1000
16:54:05.283,-6.83,-69.33,55.43,3.35,13.41,-11.65,1.04,-0.15,0.38,1000
16:54:05.292,-7.1,-69.23,55.3,0.37,23.72,-14.51,1.05,-0.13,0.36,1000
16:54:05.303,-7.36,-68.94,55.11,0.43,40.18,-20.49,1.08,-0.1,0.42,1000
16:54:05.315,-7.53,-68.42,54.85,3.96,59.15,-26.34,1.09,-0.12,0.37,1000
16:54:05.325,-7.6,-67.77,54.53,11.83,76.95,-33.48,1.02,-0.12,0.35,1000
16:54:05.336,-7.6,-67.05,54.13,17.62,83.66,-39.02,1.0,-0.15,0.37,1000
16:54:05.350,-7.59,-66.29,53.67,22.56,85.91,-45.37,1.0,-0.13,0.37,1000
16:54:05.366,-7.58,-65.49,53.14,24.82,83.05,-52.44,0.95,-0.12,0.42,1000
16:54:05.371,-7.55,-64.73,52.59,22.74,81.46,-58.66,0.9,-0.09,0.44,1000
16:54:05.380,-7.47,-63.78,51.85,15.3,80.49,-65.12,0.84,-0.04,0.45,1000
16:54:05.391,-7.32,-62.91,51.11,8.05,76.83,-69.21,0.79,-0.03,0.44,1000
16:54:05.405,-7.24,-62.03,50.33,-0.49,69.76,-72.5,0.79,-0.03,0.47,1000
16:54:05.413,-7.25,-61.18,49.52,-8.72,62.44,-74.82,0.81,-0.03,0.51,1000
16:54:05.426,-7.27,-60.38,48.68,-13.84,56.89,-76.95,0.84,-0.04,0.52,1000
16:54:05.435,-7.35,-59.67,47.83,-16.71,54.09,-78.11,0.82,-0.04,0.53,1000
16:54:05.447,-7.41,-59.01,46.98,-16.59,52.87,-76.28,0.86,-0.05,0.53,1000
16:54:05.468,-7.49,-58.41,46.17,-13.78,52.01,-69.88,0.83,-0.04,0.55,1000
16:54:05.468,-7.48,-57.81,45.45,-10.37,47.56,-59.88,0.81,-0.01,0.55,1000
16:54:05.480,-7.3,-57.19,44.82,-9.15,43.54,-55.3,0.78,0.02,0.6,1000
16:54:05.490,-6.99,-56.56,44.22,-5.73,33.84,-52.87,0.79,0.07,0.57,1000
16:54:05.503,-6.63,-56.11,43.7,-2.93,24.33,-50.61,0.77,0.03,0.58,1000
16:54:05.512,-6.27,-55.74,43.11,-3.41,13.48,-47.32,0.82,0.02,0.58,1000
16:54:05.523,-5.87,-55.56,42.61,-6.95,7.93,-43.41,0.83,0.05,0.57,1000
16:54:05.534,-5.46,-55.46,42.15,-12.5,9.02,-40.0,0.83,0.09,0.56,1000
16:54:05.546,-5.06,-55.38,41.73,-19.63,13.72,-36.89,0.84,0.12,0.58,1000
16:54:05.556,-4.74,-55.25,41.33,-23.9,16.52,-35.55,0.79,0.1,0.57,1000
16:54:05.569,-4.37,-55.01,40.93,-24.94,19.15,-37.13,0.77,0.08,0.59,1000
16:54:05.580,-4.09,-54.68,40.51,-22.26,19.27,-40.3,0.79,0.1,0.61,1000
16:54:05.589,-3.82,-54.33,40.05,-19.09,19.02,-44.15,0.77,0.07,0.65,1000
16:54:05.600,-3.48,-53.94,39.54,-16.77,17.68,-48.66,0.79,0.08,0.63,1000
