Timestamp,Roll,Pitch,Yaw,Gyro_X,Gyro_Y,Gyro_Z,Accel_X,Accel_Y,Accel_Z,Throttle
16:59:19.912,5.48,-3.87,-95.05,-1.59,-2.99,7.99,0.07,0.15,1.02,1000
16:59:19.919,5.67,-3.9,-94.96,-2.8,-5.91,8.23,0.06,0.13,1.04,1000
16:59:19.940,5.79,-3.92,-94.87,-3.66,-7.8,7.5,0.07,0.11,1.03,1000
16:59:19.941,5.84,-3.96,-94.79,-3.78,-9.09,6.59,0.07,0.1,1.03,1000
16:59:19.952,5.82,-4.02,-94.72,-4.02,-10.61,5.98,0.08,0.1,1.03,1000
16:59:19.963,5.8,-4.12,-94.66,-3.41,-11.04,6.1,0.08,0.11,1.04,1000
16:59:19.978,5.77,-4.22,-94.58,-2.26,-11.16,6.59,0.08,0.1,1.05,1000
16:59:19.985,5.75,-4.31,-94.51,-0.49,-11.16,7.01,0.1,0.09,1.06,1000
16:59:19.996,5.75,-4.46,-94.43,1.65,-9.7,8.48,0.11,0.12,1.05,1000
16:59:20.008,5.84,-4.63,-94.31,4.51,-7.5,10.73,0.1,0.12,1.07,1000
16:59:20.017,5.95,-4.78,-94.2,6.71,-5.24,11.34,0.13,0.12,1.06,1000
16:59:20.029,6.07,-4.95,-94.08,8.54,-1.46,11.16,0.13,0.11,1.05,1000
16:59:20.040,6.18,-5.13,-93.96,9.57,1.77,10.0,0.12,0.12,1.05,1000
16:59:20.051,6.31,-5.25,-93.86,9.63,4.39,8.84,0.14,0.12,1.03,1000
16:59:20.062,6.47,-5.38,-93.76,8.78,6.04,7.93,0.12,0.14,1.03,1000
16:59:20.073,6.64,-5.44,-93.69,7.13,6.89,7.32,0.12,0.15,1.02,1000
16:59:20.084,6.83,-5.45,-93.6,4.27,6.52,6.89,0.1,0.15,1.02,1000
16:59:20.095,7.0,-5.45,-93.54,1.77,5.79,5.61,0.1,0.14,1.01,1000
16:59:20.106,7.13,-5.44,-93.48,-1.1,4.45,3.78,0.11,0.14,1.01,1000
16:59:20.119,7.2,-5.44,-93.45,-4.15,2.68,1.46,0.1,0.13,1.01,1000
16:59:20.128,7.19,-5.44,-93.45,-6.52,0.37,-1.1,0.1,0.12,1.02,1000
16:59:20.140,7.1,-5.49,-93.48,-8.41,-3.11,-4.33,0.11,0.11,1.01,1000
16:59:20.154,6.96,-5.57,-93.53,-9.76,-6.1,-6.46,0.11,0.1,1.01,1000
16:59:20.162,6.81,-5.69,-93.61,-10.18,-9.7,-8.41,0.13,0.11,1.01,1000
16:59:20.172,6.65,-5.88,-93.71,-9.88,-11.95,-9.02,0.13,0.11,1.03,1000
16:59:20.185,6.51,-6.1,-93.81,-8.84,-11.52,-9.82,0.15,0.1,1.03,1000
16:59:20.194,6.34,-6.39,-93.92,-7.74,-9.94,-10.55,0.17,0.08,1.06,1000
16:59:20.207,6.1,-6.74,-94.04,-6.77,-7.8,-12.13,0.18,0.07,1.04,1000
16:59:20.216,5.86,-7.05,-94.2,-5.55,-5.12,-14.7,0.19,0.05,1.06,1000
16:59:20.228,5.53,-7.42,-94.36,-4.57,-3.78,-16.71,0.19,0.04,1.04,1000
16:59:20.246,5.25,-7.68,-94.55,-3.72,-2.32,-17.99,0.18,0.04,1.04,1000
16:59:20.249,4.96,-7.93,-94.75,-3.35,0.12,-18.05,0.17,0.06,1.02,1000
16:59:20.260,4.77,-8.07,-94.94,-3.29,2.13,-16.4,0.15,0.06,1.04,1000
16:59:20.271,4.56,-8.12,-95.13,-3.72,3.84,-15.06,0.14,0.04,1.03,1000
16:59:20.282,4.36,-8.1,-95.27,-4.02,4.63,-14.15,0.14,0.03,1.03,1000
16:59:20.293,4.12,-8.06,-95.42,-4.51,4.33,-13.29,0.13,0.03,1.02,1000
16:59:20.304,3.83,-7.96,-95.57,-4.7,3.11,-11.1,0.12,0.03,1.01,1000
16:59:20.315,3.57,-7.84,-95.68,-4.51,1.83,-9.09,0.1,0.03,1.01,1000
16:59:20.329,3.33,-7.67,-95.76,-3.84,0.73,-5.55,0.1,0.03,1.01,1000
16:59:20.337,3.16,-7.52,-95.81,-2.8,1.22,-2.2,0.12,0.05,1.0,1000
16:59:20.350,3.08,-7.41,-95.81,-2.07,1.65,1.52,0.1,0.05,1.04,1000
16:59:20.358,2.98,-7.22,-95.78,-1.52,2.5,3.29,0.11,0.03,1.03,1000
16:59:20.370,2.83,-7.08,-95.75,-1.46,3.35,2.99,0.12,0.02,1.02,1000
16:59:20.381,2.67,-7.0,-95.72,-1.65,3.6,2.56,0.12,0.03,1.02,1000
16:59:20.392,2.54,-6.95,-95.69,-1.65,3.48,2.01,0.13,0.04,1.02,1000
16:59:20.402,2.44,-6.93,-95.67,-1.22,2.87,2.32,0.13,0.04,1.01,1000
16:59:20.414,2.4,-6.91,-95.64,-0.06,2.44,2.93,0.12,0.05,1.01,1000
16:59:20.432,2.4,-6.89,-95.6,0.79,2.01,3.72,0.11,0.04,1.01,1000
16:59:20.442,2.4,-6.83,-95.56,1.4,1.34,3.84,0.11,0.03,1.01,1000
16:59:20.455,2.38,-6.78,-95.52,1.77,0.24,3.72,0.12,0.03,1.0,1000
16:59:20.458,2.35,-6.77,-95.48,2.13,-0.3,3.84,0.13,0.04,0.99,1000
16:59:20.471,2.34,-6.79,-95.43,2.32,-0.24,4.33,0.13,0.04,0.99,1000
16:59:20.480,2.36,-6.83,-95.38,2.5,0.55,5.12,0.14,0.06,1.0,1000
16:59:20.491,2.44,-6.89,-95.32,2.5,2.68,6.4,0.14,0.06,1.01,1000
16:59:20.503,2.53,-6.93,-95.25,2.13,6.28,7.01,0.16,0.07,1.02,1000
16:59:20.514,2.64,-6.97,-95.17,1.4,10.49,5.67,0.14,0.05,1.05,1000
16:59:20.527,2.67,-6.94,-95.12,0.3,13.35,3.35,0.15,0.04,1.03,1000
16:59:20.538,2.66,-6.91,-95.1,-0.85,16.16,-0.12,0.15,0.04,1.01,1000
16:59:20.557,2.62,-6.9,-95.11,-1.1,16.95,-2.2,0.12,0.04,1.0,1000
16:59:20.557,2.58,-6.79,-95.14,-0.85,16.1,-2.93,0.12,0.04,0.99,1000
16:59:20.573,2.55,-6.67,-95.17,-0.12,13.9,-2.74,0.11,0.04,0.98,1000
16:59:20.578,2.54,-6.53,-95.2,0.79,10.67,-1.59,0.09,0.04,0.99,1000
16:59:20.593,2.55,-6.4,-95.21,1.77,7.2,0.0,0.1,0.04,0.97,1000
16:59:20.602,2.56,-6.31,-95.2,2.93,3.72,1.95,0.09,0.04,0.99,1000
16:59:20.612,2.56,-6.22,-95.16,3.29,0.3,3.35,0.09,0.03,0.99,1000
16:59:20.624,2.53,-6.16,-95.13,3.17,-2.26,3.72,0.09,0.03,0.99,1000
16:59:20.637,2.49,-6.12,-95.09,2.93,-4.09,4.02,0.09,0.02,0.99,1000
16:59:20.649,2.4,-6.09,-95.04,2.8,-4.88,3.84,0.09,0.01,0.99,1000
16:59:20.658,2.26,-6.1,-95.0,3.11,-4.76,4.51,0.09,0.01,1.0,1000
16:59:20.666,2.1,-6.08,-94.95,3.78,-3.78,5.43,0.1,-0.01,1.01,1000
16:59:20.679,1.89,-6.06,-94.88,5.55,-2.99,6.83,0.1,-0.02,1.03,1000
16:59:20.689,1.67,-6.01,-94.79,8.54,-2.38,9.27,0.09,-0.03,1.03,1000
16:59:20.699,1.49,-5.95,-94.68,11.04,-2.44,12.44,0.1,-0.01,1.03,1000
16:59:20.714,1.36,-5.89,-94.51,13.48,-3.29,17.38,0.09,0.02,1.05,1000
16:59:20.724,1.38,-5.82,-94.29,14.88,-3.84,22.26,0.09,0.03,1.05,1000
16:59:20.734,1.48,-5.77,-94.05,14.76,-4.57,25.85,0.1,0.04,1.07,1000
16:59:20.744,1.65,-5.76,-93.73,12.62,-3.29,27.2,0.11,0.05,1.06,1000
16:59:20.761,1.8,-5.77,-93.46,9.57,-1.77,26.77,0.11,0.05,1.07,1000
16:59:20.767,1.92,-5.8,-93.18,5.79,-0.79,24.09,0.13,0.05,1.06,1000
16:59:20.778,2.01,-5.86,-92.93,1.83,0.06,19.94,0.14,0.06,1.06,1000
16:59:20.788,2.05,-5.94,-92.73,-1.89,0.98,15.49,0.15,0.05,1.05,1000
16:59:20.799,2.07,-6.09,-92.57,-4.82,1.28,10.85,0.15,0.06,1.06,1000
16:59:20.810,2.07,-6.23,-92.47,-6.4,1.71,7.38,0.15,0.05,1.05,1000
16:59:20.821,2.05,-6.37,-92.41,-6.4,2.07,4.27,0.15,0.04,1.06,1000
16:59:20.837,2.01,-6.51,-92.37,-5.49,2.2,2.13,0.14,0.03,1.04,1000
16:59:20.845,1.94,-6.61,-92.36,-3.66,2.13,0.85,0.13,0.03,1.05,1000
16:59:20.861,1.89,-6.65,-92.35,-1.16,2.13,0.18,0.12,0.04,1.03,1000
16:59:20.865,1.87,-6.67,-92.35,0.0,1.52,-0.12,0.12,0.03,1.04,1000
16:59:20.876,1.83,-6.67,-92.36,0.18,1.04,-1.16,0.12,0.02,1.02,1000
16:59:20.887,1.77,-6.66,-92.37,-1.1,1.16,-2.01,0.1,0.03,1.03,1000
16:59:20.901,1.7,-6.6,-92.4,-3.66,1.59,-3.48,0.1,0.02,1.02,1000
16:59:20.910,1.6,-6.52,-92.45,-6.16,1.65,-4.94,0.1,0.02,1.02,1000
16:59:20.921,1.43,-6.4,-92.52,-7.74,1.4,-6.4,0.1,-0.0,1.01,1000
16:59:20.930,1.23,-6.32,-92.58,-7.5,0.55,-7.13,0.1,-0.01,1.01,1000
16:59:20.942,0.98,-6.23,-92.67,-5.37,-1.34,-6.59,0.09,0.0,1.01,1000
16:59:20.959,0.83,-6.18,-92.74,-2.56,-2.87,-4.76,0.09,0.01,1.02,1000
16:59:20.965,0.76,-6.13,-92.77,0.0,-3.84,-1.4,0.09,0.03,1.03,1000
16:59:20.978,0.75,-6.07,-92.77,1.77,-4.39,1.65,0.08,0.02,1.02,1000
16:59:20.988,0.78,-6.0,-92.75,2.26,-4.94,3.72,0.08,0.03,1.04,1000
16:59:20.997,0.84,-5.93,-92.7,1.83,-5.06,4.94,0.08,0.04,1.03,1000
16:59:21.008,0.93,-5.84,-92.63,0.67,-5.43,6.28,0.08,0.04,1.04,1000
16:59:21.021,1.05,-5.77,-92.56,-0.85,-3.54,7.07,0.1,0.08,1.01,1000
16:59:21.029,1.3,-5.7,-92.49,-1.46,0.43,8.11,0.1,0.1,1.04,1000
16:59:21.041,1.6,-5.59,-92.39,-1.65,5.24,7.93,0.08,0.08,1.09,1000
16:59:21.066,1.86,-5.4,-92.32,-0.98,9.76,5.43,0.09,0.07,1.06,1000
16:59:21.070,2.08,-5.21,-92.28,0.55,14.45,1.59,0.11,0.07,1.07,1000
16:59:21.074,2.23,-5.04,-92.28,1.83,16.46,-2.93,0.09,0.05,1.05,1000
16:59:21.085,2.38,-4.88,-92.33,3.05,16.1,-6.95,0.11,0.06,1.04,1000
16:59:21.098,2.48,-4.78,-92.41,3.78,14.33,-9.76,0.09,0.06,1.02,1000
16:59:21.107,2.63,-4.66,-92.54,4.33,10.61,-10.24,0.08,0.09,1.0,1000
16:59:21.118,2.86,-4.6,-92.63,4.51,8.9,-7.74,0.12,0.15,0.98,1000
16:59:21.129,3.32,-4.56,-92.69,5.12,9.7,-2.62,0.05,0.16,1.04,1000
16:59:21.141,3.74,-4.39,-92.7,4.94,12.2,-0.37,0.06,0.12,1.05,1000
16:59:21.152,4.06,-4.22,-92.71,3.9,13.9,-0.79,0.09,0.1,1.06,1000
16:59:21.169,4.27,-4.1,-92.73,1.52,14.27,-4.09,0.08,0.07,1.03,1000
16:59:21.178,4.3,-4.04,-92.79,-0.91,12.93,-7.62,0.09,0.05,1.02,1000
16:59:21.184,4.24,-3.99,-92.9,-2.87,9.51,-10.3,0.1,0.06,0.98,1000
16:59:21.197,4.2,-4.02,-93.0,-3.66,5.61,-10.3,0.07,0.1,1.0,1000
16:59:21.208,4.25,-4.02,-93.11,-2.56,2.99,-8.17,0.07,0.12,1.0,1000
16:59:21.217,4.41,-4.02,-93.19,-0.37,-0.73,-5.43,0.06,0.11,1.04,1000
16:59:21.228,4.57,-4.0,-93.24,1.1,-3.11,-4.33,0.07,0.1,1.01,1000
16:59:21.240,4.67,-4.03,-93.28,0.67,-4.57,-4.39,0.07,0.09,1.06,1000
16:59:21.250,4.69,-4.12,-93.34,-0.61,-7.87,-6.28,0.08,0.06,1.01,1000
16:59:21.263,4.65,-4.25,-93.42,-3.35,-10.98,-8.9,0.09,0.07,1.03,1000
16:59:21.274,4.57,-4.43,-93.54,-7.32,-14.63,-11.46,0.08,0.09,1.01,1000
16:59:21.282,4.5,-4.61,-93.66,-9.82,-16.4,-12.62,0.08,0.09,1.03,1000
16:59:21.293,4.44,-4.78,-93.81,-10.85,-17.44,-13.78,0.08,0.08,1.03,1000
16:59:21.306,4.32,-4.96,-93.98,-10.06,-17.5,-15.61,0.1,0.05,1.04,1000
16:59:21.316,4.16,-5.14,-94.15,-8.35,-17.07,-17.2,0.11,0.05,1.03,1000
16:59:21.329,3.99,-5.35,-94.34,-6.34,-16.28,-18.6,0.11,0.04,1.04,1000
16:59:21.338,3.81,-5.62,-94.57,-4.45,-15.12,-19.33,0.15,0.05,1.02,1000
16:59:21.349,3.67,-5.94,-94.76,-2.87,-13.66,-18.78,0.14,0.07,1.04,1000
16:59:21.364,3.63,-6.21,-94.96,-2.01,-9.63,-17.01,0.13,0.08,1.03,1000
16:59:21.372,3.63,-6.41,-95.14,-1.71,-5.18,-15.85,0.14,0.06,1.05,1000
16:59:21.382,3.6,-6.55,-95.33,-2.38,-0.43,-16.04,0.13,0.04,1.04,1000
16:59:21.392,3.5,-6.62,-95.49,-3.35,3.05,-16.71,0.13,0.04,1.02,1000
16:59:21.404,3.38,-6.63,-95.69,-4.51,5.67,-16.95,0.11,0.04,1.0,1000
16:59:21.415,3.25,-6.55,-95.86,-5.18,6.83,-16.77,0.09,0.04,0.99,1000
16:59:21.425,3.1,-6.41,-96.04,-5.12,7.32,-15.67,0.08,0.03,0.98,1000
16:59:21.437,2.95,-6.23,-96.2,-4.57,7.62,-13.96,0.06,0.02,0.97,1000
16:59:21.448,2.76,-5.96,-96.35,-3.11,7.01,-11.4,0.06,0.03,0.97,1000
16:59:21.460,2.63,-5.72,-96.45,-1.04,7.68,-7.44,0.07,0.04,0.94,1000
16:59:21.476,2.57,-5.47,-96.51,1.22,7.93,-2.62,0.05,0.05,0.98,1000
16:59:21.482,2.57,-5.15,-96.52,3.72,9.27,1.52,0.05,0.04,0.96,1000
16:59:21.491,2.59,-4.89,-96.49,5.85,10.55,4.63,0.06,0.04,0.98,1000
16:59:21.503,2.63,-4.63,-96.42,7.62,10.3,7.44,0.07,0.04,0.97,1000
16:59:21.515,2.68,-4.46,-96.33,8.11,8.54,8.96,0.09,0.05,0.97,1000
16:59:21.529,2.77,-4.39,-96.24,7.87,5.3,10.37,0.09,0.07,0.96,1000
16:59:21.535,2.92,-4.38,-96.12,6.65,0.85,11.34,0.08,0.09,0.97,1000
16:59:21.546,3.13,-4.41,-95.99,5.12,-2.93,11.95,0.1,0.11,0.97,1000
16:59:21.558,3.49,-4.53,-95.84,3.17,-7.56,12.32,0.07,0.12,1.01,1000
16:59:21.571,3.75,-4.61,-95.73,0.73,-10.55,10.3,0.07,0.1,1.0,1000
16:59:21.580,3.96,-4.74,-95.63,-1.77,-13.54,5.79,0.1,0.08,1.01,1000
16:59:21.592,4.07,-4.9,-95.59,-2.13,-15.43,1.16,0.09,0.08,1.01,1000
16:59:21.601,4.11,-5.08,-95.6,-2.32,-17.07,-2.87,0.09,0.09,1.03,1000
16:59:21.613,4.16,-5.27,-95.65,-1.28,-18.9,-6.04,0.1,0.1,1.02,1000
16:59:21.624,4.29,-5.47,-95.72,0.37,-19.94,-7.32,0.09,0.12,1.06,1000
16:59:21.635,4.51,-5.63,-95.8,2.87,-19.33,-7.38,0.09,0.13,1.05,1000
16:59:21.647,4.77,-5.76,-95.89,5.18,-16.65,-8.41,0.11,0.11,1.08,1000
16:59:21.659,4.96,-5.89,-95.99,6.4,-13.23,-10.91,0.12,0.1,1.06,1000
16:59:21.673,5.12,-6.02,-96.13,6.4,-10.0,-13.41,0.13,0.1,1.07,1000
16:59:21.679,5.22,-6.15,-96.28,5.73,-6.95,-15.67,0.14,0.1,1.05,1000
16:59:21.690,5.29,-6.28,-96.46,4.94,-4.63,-16.89,0.13,0.1,1.05,1000
16:59:21.701,5.39,-6.41,-96.65,3.48,-1.4,-16.28,0.14,0.13,1.04,1000
16:59:21.711,5.54,-6.47,-96.81,1.71,1.89,-14.02,0.1,0.13,1.05,1000
16:59:21.723,5.66,-6.45,-96.98,-0.79,5.24,-12.8,0.14,0.1,1.04,1000
16:59:21.734,5.68,-6.45,-97.1,-2.5,7.07,-12.5,0.13,0.09,1.04,1000
16:59:21.745,5.61,-6.44,-97.24,-3.72,7.87,-12.62,0.13,0.08,1.02,1000
16:59:21.755,5.46,-6.46,-97.38,-3.84,7.38,-12.32,0.14,0.06,1.01,1000
16:59:21.774,5.29,-6.5,-97.52,-2.62,5.79,-11.04,0.13,0.06,1.0,1000
16:59:21.786,5.13,-6.56,-97.63,-0.37,4.33,-8.96,0.12,0.07,1.01,1000
16:59:21.789,5.04,-6.57,-97.72,2.13,2.5,-6.34,0.11,0.06,1.02,1000
16:59:21.801,4.94,-6.54,-97.77,4.09,0.43,-5.0,0.1,0.05,1.01,1000
16:59:21.811,4.86,-6.5,-97.82,5.49,-2.07,-3.17,0.09,0.06,1.01,1000
16:59:21.823,4.77,-6.44,-97.85,5.61,-4.33,-1.77,0.09,0.06,1.0,1000
16:59:21.834,4.76,-6.41,-97.86,4.82,-5.79,0.12,0.09,0.09,1.0,1000
16:59:21.847,4.78,-6.37,-97.85,3.54,-5.98,1.34,0.07,0.09,1.02,1000
16:59:21.854,4.81,-6.26,-97.84,1.95,-6.1,1.04,0.08,0.08,1.04,1000
16:59:21.866,4.78,-6.15,-97.84,-0.24,-5.55,-0.91,0.08,0.07,1.02,1000
16:59:21.877,4.7,-6.05,-97.86,-1.95,-4.94,-3.11,0.09,0.07,1.03,1000
16:59:21.888,4.64,-5.98,-97.9,-2.99,-3.78,-4.39,0.09,0.1,1.02,1000
16:59:21.899,4.63,-5.9,-97.95,-2.62,-2.8,-4.63,0.08,0.09,1.04,1000
16:59:21.910,4.64,-5.78,-98.01,-1.28,-2.8,-5.43,0.1,0.08,1.05,1000
16:59:21.921,4.64,-5.72,-98.07,-0.12,-2.68,-6.16,0.1,0.08,1.04,1000
16:59:21.936,4.63,-5.69,-98.15,1.52,-3.29,-7.13,0.11,0.08,1.04,1000
16:59:21.944,4.63,-5.73,-98.23,2.8,-3.96,-6.71,0.13,0.09,1.02,1000
16:59:21.954,4.66,-5.81,-98.29,3.05,-4.39,-5.73,0.13,0.1,1.03,1000
16:59:21.968,4.75,-5.94,-98.34,2.56,-4.45,-3.66,0.12,0.11,1.04,1000
16:59:21.975,4.86,-6.04,-98.37,1.4,-4.15,-1.46,0.12,0.11,1.04,1000
16:59:21.989,4.96,-6.16,-98.38,0.24,-3.66,0.18,0.14,0.1,1.04,1000
16:59:21.997,5.03,-6.28,-98.37,-1.4,-2.74,1.16,0.14,0.1,1.03,1000
16:59:22.009,5.07,-6.44,-98.35,-2.68,-2.26,1.71,0.15,0.1,1.02,1000
16:59:22.021,5.11,-6.6,-98.34,-3.17,-1.28,2.38,0.14,0.12,1.02,1000
16:59:22.031,5.2,-6.72,-98.3,-3.17,-0.12,3.23,0.13,0.12,1.03,1000
16:59:22.042,5.28,-6.78,-98.27,-3.29,1.77,2.2,0.15,0.1,1.03,1000
16:59:22.056,5.34,-6.86,-98.26,-3.54,3.96,0.06,0.14,0.11,1.03,1000
16:59:22.063,5.36,-6.87,-98.27,-3.96,5.67,-2.44,0.12,0.09,1.03,1000
16:59:22.075,5.32,-6.84,-98.32,-4.57,6.04,-6.34,0.13,0.07,1.03,1000
16:59:22.091,5.2,-6.82,-98.41,-4.76,5.12,-9.76,0.13,0.07,1.02,1000
16:59:22.097,5.06,-6.81,-98.53,-4.57,2.68,-12.13,0.12,0.06,1.02,1000
16:59:22.108,4.9,-6.82,-98.67,-4.02,0.3,-13.05,0.13,0.08,1.01,1000
16:59:22.118,4.81,-6.85,-98.8,-2.87,-1.28,-12.13,0.1,0.08,1.02,1000
16:59:22.133,4.75,-6.84,-98.94,-1.83,-2.2,-11.1,0.11,0.08,1.02,1000
16:59:22.145,4.69,-6.81,-99.04,-1.46,-2.44,-10.49,0.12,0.06,1.03,1000
16:59:22.152,4.59,-6.8,-99.17,-1.28,-2.2,-10.49,0.12,0.06,1.01,1000
16:59:22.165,4.46,-6.79,-99.28,-1.22,-1.77,-10.24,0.12,0.05,1.01,1000
16:59:22.174,4.32,-6.79,-99.39,-1.28,-0.67,-9.57,0.13,0.06,1.0,1000
16:59:22.191,4.21,-6.82,-99.49,-0.55,0.55,-8.11,0.12,0.07,1.01,1000
16:59:22.196,4.15,-6.81,-99.57,0.18,2.07,-5.85,0.11,0.07,1.01,1000
16:59:22.207,4.11,-6.77,-99.62,0.24,2.93,-4.57,0.12,0.06,1.02,1000
16:59:22.218,4.04,-6.74,-99.67,-0.67,3.84,-3.41,0.13,0.06,1.0,1000
16:59:22.229,3.97,-6.72,-99.7,-1.83,4.21,-1.95,0.11,0.06,1.02,1000
16:59:22.241,3.9,-6.67,-99.71,-3.35,2.99,-0.85,0.11,0.06,1.0,1000
16:59:22.251,3.83,-6.63,-99.72,-4.39,2.01,0.0,0.11,0.06,1.0,1000
16:59:22.262,3.76,-6.59,-99.71,-4.21,0.24,1.28,0.1,0.07,1.01,1000
16:59:22.274,3.73,-6.54,-99.69,-3.17,-1.34,2.2,0.1,0.07,1.01,1000
16:59:22.288,3.69,-6.47,-99.67,-1.89,-2.44,2.56,0.1,0.05,1.02,1000
16:59:22.295,3.63,-6.45,-99.64,-0.24,-3.6,1.71,0.11,0.05,1.02,1000
16:59:22.308,3.57,-6.46,-99.63,1.1,-4.09,1.1,0.11,0.05,1.01,1000
16:59:22.318,3.52,-6.48,-99.62,2.07,-4.15,0.49,0.12,0.06,1.02,1000
16:59:22.327,3.53,-6.5,-99.61,2.68,-3.29,0.73,0.11,0.08,1.02,1000
16:59:22.338,3.57,-6.51,-99.6,2.74,-2.13,0.85,0.1,0.07,1.03,1000
16:59:22.352,3.63,-6.49,-99.6,1.89,-1.28,0.24,0.12,0.07,1.03,1000
16:59:22.361,3.67,-6.5,-99.6,0.73,-0.79,-0.37,0.11,0.07,1.02,1000
16:59:22.372,3.71,-6.49,-99.6,-0.43,-1.1,-0.79,0.12,0.08,1.02,1000
16:59:22.396,3.74,-6.5,-99.61,-1.59,-1.46,-0.91,0.12,0.08,1.01,1000
16:59:22.397,3.81,-6.53,-99.62,-2.5,-0.61,-0.12,0.12,0.1,1.02,1000
16:59:22.405,3.9,-6.54,-99.61,-3.41,0.43,1.1,0.11,0.09,1.04,1000
16:59:22.416,3.98,-6.51,-99.6,-3.78,0.43,0.85,0.12,0.08,1.04,1000
16:59:22.427,3.99,-6.5,-99.6,-3.78,0.3,-0.37,0.12,0.07,1.03,1000
16:59:22.439,3.97,-6.48,-99.61,-3.35,0.0,-2.01,0.11,0.07,1.02,1000
16:59:22.448,3.93,-6.46,-99.64,-2.44,-0.91,-2.74,0.11,0.07,1.02,1000
16:59:22.459,3.91,-6.43,-99.67,-1.16,-2.01,-2.74,0.1,0.07,1.01,1000
16:59:22.472,3.91,-6.39,-99.7,0.12,-2.74,-2.07,0.09,0.07,1.03,1000
16:59:22.483,3.92,-6.36,-99.72,0.98,-3.6,-1.52,0.1,0.06,1.02,1000
16:59:22.498,3.93,-6.35,-99.73,1.52,-3.17,-0.85,0.11,0.07,1.02,1000
16:59:22.506,3.95,-6.35,-99.73,1.22,-2.32,-0.06,0.11,0.07,1.02,1000
16:59:22.515,3.97,-6.32,-99.73,0.24,-1.22,0.06,0.12,0.07,1.02,1000
16:59:22.526,3.96,-6.32,-99.73,-0.67,-0.37,0.18,0.12,0.07,1.03,1000
16:59:22.539,3.93,-6.33,-99.73,-1.59,0.0,-0.18,0.11,0.07,1.02,1000
16:59:22.548,3.9,-6.33,-99.73,-2.44,-0.24,-0.06,0.12,0.07,1.02,1000
16:59:22.559,3.88,-6.35,-99.73,-2.68,-0.73,0.49,0.12,0.08,1.01,1000
16:59:22.569,3.88,-6.37,-99.73,-2.44,-0.91,1.16,0.11,0.08,1.02,1000
16:59:22.581,3.9,-6.35,-99.71,-2.01,-0.73,1.34,0.1,0.07,1.02,1000
16:59:22.592,3.9,-6.32,-99.7,-1.4,-0.79,0.61,0.12,0.06,1.03,1000
16:59:22.603,3.86,-6.31,-99.7,-1.04,-0.79,-0.73,0.11,0.06,1.01,1000
16:59:22.613,3.81,-6.32,-99.71,-1.1,-1.22,-1.59,0.12,0.06,1.02,1000
16:59:22.625,3.78,-6.35,-99.73,-0.85,-1.52,-2.13,0.12,0.08,1.03,1000
16:59:22.635,3.79,-6.39,-99.75,-0.73,0.3,-1.95,0.12,0.09,1.02,1000
16:59:22.653,3.89,-6.46,-99.77,-0.18,3.17,-1.1,0.14,0.11,1.05,1000
16:59:22.659,3.99,-6.44,-99.78,0.55,7.13,-1.46,0.1,0.07,1.07,1000
16:59:22.668,4.04,-6.37,-99.81,1.4,10.49,-3.41,0.13,0.07,1.05,1000
16:59:22.680,4.05,-6.3,-99.86,0.79,12.2,-5.55,0.12,0.06,1.04,1000
16:59:22.692,4.03,-6.19,-99.93,-0.06,11.1,-6.77,0.1,0.07,1.03,1000
16:59:22.705,4.0,-6.06,-100.01,-1.1,8.35,-6.34,0.1,0.07,1.01,1000
16:59:22.712,4.0,-5.93,-100.06,-1.52,5.73,-4.45,0.07,0.08,1.01,1000
16:59:22.724,4.02,-5.74,-100.1,-1.59,2.32,-1.46,0.07,0.07,1.01,1000
16:59:22.736,4.02,-5.58,-100.1,-1.52,-1.04,0.67,0.07,0.06,1.0,1000
16:59:22.745,3.99,-5.45,-100.08,-1.1,-4.15,2.93,0.08,0.06,0.99,1000
16:59:22.756,3.94,-5.41,-100.04,-0.91,-6.95,4.63,0.09,0.07,0.99,1000
16:59:22.769,3.91,-5.42,-99.98,-0.91,-7.32,6.46,0.1,0.07,0.98,1000
16:59:22.781,3.91,-5.48,-99.9,-0.73,-6.22,7.93,0.1,0.08,1.02,1000
16:59:22.791,3.94,-5.53,-99.81,-0.91,-2.8,8.17,0.11,0.08,1.02,1000
16:59:22.808,3.94,-5.55,-99.72,-1.34,0.55,6.4,0.1,0.05,1.03,1000
16:59:22.813,3.89,-5.56,-99.67,-1.59,2.38,3.66,0.11,0.05,1.02,1000
16:59:22.822,3.83,-5.56,-99.65,-1.4,3.35,0.73,0.13,0.06,1.01,1000
16:59:22.835,3.78,-5.6,-99.65,-0.55,2.99,-0.73,0.1,0.07,1.02,1000
16:59:22.846,3.76,-5.61,-99.66,0.67,1.95,-1.59,0.11,0.06,1.02,1000
16:59:22.855,3.79,-5.64,-99.68,2.07,0.67,-1.71,0.1,0.08,1.04,1000
16:59:22.867,3.86,-5.64,-99.7,2.68,-0.37,-1.34,0.1,0.08,1.02,1000
16:59:22.883,3.92,-5.64,-99.71,2.56,-1.4,-1.52,0.11,0.07,1.04,1000
16:59:22.888,3.96,-5.65,-99.73,1.04,-2.13,-2.26,0.1,0.07,1.01,1000
16:59:22.900,3.96,-5.68,-99.76,-0.67,-2.99,-2.8,0.12,0.07,1.03,1000
16:59:22.915,3.97,-5.76,-99.79,-2.93,-3.48,-2.62,0.11,0.09,1.02,1000
16:59:22.922,3.99,-5.83,-99.81,-4.57,-3.6,-1.1,0.11,0.1,1.05,1000
16:59:22.933,4.04,-5.9,-99.82,-5.79,-3.11,0.18,0.11,0.09,1.05,1000
16:59:22.944,4.05,-5.94,-99.81,-6.65,-2.87,0.43,0.1,0.07,1.06,1000
16:59:22.955,3.97,-5.97,-99.81,-7.38,-3.48,-0.3,0.12,0.05,1.05,1000
16:59:22.967,3.84,-6.04,-99.82,-7.56,-4.27,-1.16,0.12,0.06,1.05,1000
16:59:22.977,3.72,-6.13,-99.83,-6.89,-4.63,-0.85,0.14,0.07,1.06,1000
16:59:22.988,3.64,-6.25,-99.84,-5.73,-3.96,-0.37,0.13,0.07,1.08,1000
16:59:22.999,3.59,-6.34,-99.84,-4.88,-2.44,-1.28,0.14,0.05,1.08,1000
16:59:23.011,3.49,-6.44,-99.87,-4.63,-0.12,-4.09,0.14,0.04,1.06,1000
16:59:23.021,3.38,-6.5,-99.92,-4.7,1.71,-5.98,0.13,0.05,1.04,1000
16:59:23.031,3.26,-6.55,-99.99,-4.57,4.45,-7.13,0.12,0.06,1.01,1000
16:59:23.047,3.22,-6.52,-100.07,-5.06,7.07,-6.89,0.1,0.07,1.01,1000
16:59:23.053,3.23,-6.43,-100.14,-5.67,10.37,-5.91,0.11,0.09,0.98,1000
16:59:23.065,3.33,-6.26,-100.2,-6.16,13.6,-3.96,0.08,0.09,1.0,1000
16:59:23.075,3.43,-6.03,-100.24,-6.28,15.0,-3.66,0.08,0.07,0.98,1000
16:59:23.087,3.44,-5.78,-100.29,-5.91,16.71,-4.33,0.11,0.04,0.96,1000
16:59:23.115,3.39,-5.61,-100.34,-5.24,15.55,-4.94,0.09,0.04,0.95,1000
16:59:23.115,3.33,-5.44,-100.39,-3.72,13.29,-4.63,0.08,0.06,0.93,1000
16:59:23.120,3.32,-5.28,-100.43,-1.71,10.24,-2.68,0.06,0.07,0.93,1000
16:59:23.133,3.39,-5.1,-100.45,0.3,6.95,-0.12,0.05,0.08,0.94,1000
16:59:23.141,3.52,-4.93,-100.43,3.05,4.45,3.17,0.07,0.1,0.92,1000
16:59:23.153,3.78,-4.75,-100.38,5.49,1.59,6.95,0.03,0.09,0.97,1000
16:59:23.163,4.01,-4.54,-100.3,6.4,-1.65,7.68,0.06,0.08,0.96,1000
16:59:23.176,4.16,-4.45,-100.22,6.16,-4.88,6.59,0.08,0.06,0.97,1000
16:59:23.186,4.23,-4.45,-100.16,4.63,-8.41,3.72,0.06,0.07,0.97,1000
16:59:23.198,4.28,-4.47,-100.13,3.54,-11.52,2.2,0.06,0.09,0.99,1000
16:59:23.218,4.39,-4.48,-100.11,2.8,-14.88,1.22,0.04,0.09,1.0,1000
16:59:23.219,4.53,-4.51,-100.1,2.74,-16.16,0.55,0.07,0.12,1.01,1000
16:59:23.229,4.72,-4.55,-100.09,2.74,-17.2,-0.12,0.05,0.1,1.04,1000
16:59:23.240,4.84,-4.6,-100.11,2.44,-18.05,-3.41,0.1,0.07,1.05,1000
16:59:23.959,2.36,-4.17,0.01,7.5,15.61,5.06,0.05,-0.08,1.09,1100
16:59:23.967,2.45,-4.03,0.02,1.89,22.62,-0.43,0.36,0.1,0.99,1100
16:59:23.978,2.45,-3.93,-0.01,-5.73,28.11,-4.63,0.54,0.07,1.03,1100
16:59:23.990,2.39,-3.8,-0.08,-6.65,20.67,-9.76,0.39,0.31,1.01,1100
16:59:25.001,1.23,-1.32,-23.79,-8.29,10.98,-37.38,0.33,0.0,1.09,1170
16:59:26.013,-0.51,1.63,-7.32,18.17,-5.73,-40.85,-0.22,-0.15,0.93,1180
16:59:27.037,1.65,0.39,-8.84,10.85,1.77,-8.29,-0.32,-0.33,1.13,1210
16:59:27.047,1.51,0.13,-8.86,11.89,11.59,5.85,0.24,0.42,1.05,1210
16:59:27.059,1.49,0.15,-8.91,0.12,-14.21,-7.99,0.62,-0.24,0.53,1210
16:59:28.074,3.2,-0.91,-15.75,-37.62,6.52,6.46,0.12,0.78,1.32,1260
16:59:29.094,-0.51,-1.77,-16.08,-15.06,-18.17,4.02,-0.1,-0.36,1.15,1260
16:59:29.104,-0.59,-1.66,-15.99,3.05,-3.29,11.71,0.1,0.22,1.25,1260
16:59:29.116,-0.6,-1.51,-15.91,7.38,15.91,13.05,-0.41,0.08,0.98,1260
16:59:29.126,-0.6,-1.42,-15.82,10.24,-4.33,4.88,0.3,-0.01,0.51,1260
16:59:31.109,0.61,-2.01,-14.77,32.26,-12.5,0.67,0.01,-0.03,0.46,1260
16:59:32.124,-0.11,-1.48,-15.41,37.32,-14.45,4.39,0.2,0.71,0.58,1260
16:59:32.129,-0.55,-0.94,-15.4,-12.56,5.3,-4.02,-0.61,-1.38,0.71,1260
16:59:32.139,-0.53,-0.66,-15.37,26.16,6.83,5.61,0.07,1.01,1.02,1260
16:59:32.151,-0.55,-0.46,-15.36,-44.02,18.17,2.07,-0.06,-0.09,1.74,1260
16:59:33.162,-0.23,-1.17,-16.32,-33.17,25.24,-0.98,-0.61,-0.63,1.59,1260
16:59:34.185,0.79,-2.28,-18.4,-33.84,-9.7,-8.35,0.42,0.4,1.49,1260
16:59:34.196,0.52,-2.32,-18.43,0.91,19.45,0.98,-0.53,-0.74,1.23,1260
16:59:34.207,0.71,-2.41,-18.46,14.45,3.23,1.4,0.31,0.81,1.05,1260
16:59:34.218,0.74,-2.48,-18.5,-18.05,24.15,-4.09,0.12,-0.28,1.24,1260
16:59:37.188,0.12,-2.99,-11.83,-2.87,4.15,-21.46,-0.41,-0.76,0.83,1270
16:59:39.201,-2.4,0.03,-17.71,-0.06,-11.71,1.95,0.31,-0.51,0.72,1270
16:59:41.214,-0.34,1.7,-18.99,-8.23,13.11,-1.59,-0.5,-0.69,1.3,1270
16:59:41.225,-0.56,1.69,-19.0,19.76,-41.95,2.13,0.25,0.24,0.81,1270
16:59:41.238,-0.75,1.84,-19.0,-13.29,1.4,-1.46,-0.19,-0.73,1.34,1270
16:59:42.254,0.04,-1.66,-20.08,39.02,8.29,3.54,-0.22,0.34,1.18,1270
16:59:42.263,0.43,-1.83,-20.11,2.74,32.56,2.5,-0.27,-0.51,1.03,1270
16:59:42.270,0.5,-1.9,-20.13,23.17,-7.32,-0.18,-0.11,-0.18,0.52,1270
16:59:43.284,-1.71,0.65,-18.51,32.87,7.13,18.66,0.32,0.92,1.19,1270
16:59:44.295,-1.19,-0.54,-22.04,15.73,-28.78,-7.26,0.02,-1.03,0.65,1270
16:59:47.321,-1.22,2.3,-18.47,21.65,-27.13,-8.11,0.2,0.62,1.15,1270
16:59:48.354,1.01,-4.6,-23.3,1.04,0.85,4.51,0.81,-0.03,0.86,1270
16:59:49.367,-1.61,1.89,-22.01,-2.68,-8.29,-10.3,0.15,-0.27,1.24,1270
16:59:49.376,-1.54,1.4,-22.09,18.05,21.28,0.55,0.18,0.15,1.36,1270
16:59:49.387,-1.51,0.94,-22.16,6.46,11.89,0.18,-0.24,0.09,1.13,1270
16:59:50.400,0.7,-2.3,-13.3,13.84,-4.82,18.6,-0.42,-0.27,0.9,1270
16:59:51.411,-2.27,-1.35,-26.02,25.49,-27.56,10.98,0.74,-0.24,0.54,1270
16:59:53.437,-0.56,-1.55,-19.72,2.2,-18.48,-6.89,0.31,-0.63,0.65,1270
16:59:54.458,-0.38,-0.53,-13.14,6.83,-23.17,-7.07,0.01,0.03,0.75,1270
16:59:54.471,-0.21,-0.58,-13.18,-29.21,-0.55,-10.91,-0.19,-0.7,1.22,1270
16:59:54.479,0.06,-0.61,-13.22,15.91,-15.79,0.0,0.21,0.38,1.14,1270
16:59:54.490,0.26,-0.54,-13.27,-4.39,17.8,-4.27,-0.7,-0.54,1.07,1270
16:59:56.460,-1.99,0.72,-19.58,19.02,-22.2,-8.11,0.59,0.46,0.84,1270
16:59:57.472,0.34,-1.14,-13.8,5.73,14.45,8.17,-0.26,-0.26,1.06,1270
16:59:58.484,-0.02,-2.96,-21.97,5.18,36.4,13.78,-0.19,0.88,1.1,1270
17:00:00.496,-1.09,-2.18,-14.6,-32.38,2.56,15.06,0.69,0.46,1.58,1270
17:00:01.512,1.53,-4.54,-23.41,13.78,14.82,-1.16,0.48,0.39,1.02,1270
17:00:02.539,-1.49,5.94,-12.85,17.44,-29.33,-28.6,0.04,-0.14,0.89,1270
17:00:02.543,-1.61,6.0,-13.19,4.57,-28.84,-36.59,0.11,-0.17,1.05,1270
17:00:03.570,-6.41,-4.06,-18.4,22.07,1.71,21.77,-0.06,-0.57,1.09,1270
17:00:03.570,-6.53,-4.02,-18.14,16.95,1.83,24.88,0.19,0.68,1.49,1270
17:00:03.576,-6.48,-4.02,-17.88,8.35,20.3,26.52,-0.28,-1.06,1.27,1270
17:00:04.588,-0.64,6.16,-19.44,-10.37,-25.73,-56.16,-0.07,0.33,1.19,1270
17:00:05.609,-2.16,1.71,-18.19,-37.87,9.33,26.83,-0.08,-0.6,1.61,1270
17:00:05.613,-1.95,1.61,-17.85,65.24,-4.63,31.22,0.24,-0.03,0.54,1270
17:00:06.632,0.81,-2.79,-13.98,-0.85,-11.71,-0.61,0.15,0.09,0.92,1270
17:00:06.635,0.83,-2.72,-13.96,-1.59,-37.26,-0.18,0.76,0.09,1.21,1270
17:00:06.645,0.91,-3.03,-13.93,4.7,20.49,8.11,-0.15,-0.17,0.99,1270
17:00:06.658,0.94,-3.08,-13.89,17.62,10.49,4.7,-0.28,0.52,0.65,1270
17:00:07.669,-0.82,-2.42,-1.9,-17.26,-11.28,-30.73,0.12,-0.06,0.68,1270
17:00:08.681,0.67,-1.91,-3.07,-0.49,-8.41,-12.26,-0.21,-0.48,0.74,1270
17:00:08.691,0.64,-2.17,-3.14,-7.93,21.65,-4.51,-0.19,0.13,1.6,1270
17:00:08.702,0.65,-2.34,-3.25,-4.09,24.02,-5.12,-0.15,0.32,1.22,1270
17:00:08.715,0.61,-2.21,-3.36,6.34,-0.61,-4.82,0.62,0.15,0.96,1270
17:00:09.725,-0.76,0.58,-9.77,9.57,-23.05,11.71,0.35,0.06,1.0,1270
17:00:10.738,0.69,-1.23,-19.96,-5.06,21.28,-5.85,0.19,-0.04,0.63,1270
17:00:12.751,-1.01,-1.49,-19.5,-12.5,-7.2,12.07,0.08,-0.01,1.13,1270
17:00:14.766,1.1,-0.61,-25.52,-0.43,-28.23,-29.63,0.26,-0.72,0.25,1270
17:00:15.774,43.47,11.66,-67.63,63.29,-77.13,-21.71,-0.59,0.61,1.67,1000
17:00:15.786,44.11,11.35,-67.51,-29.63,-223.35,27.44,1.25,-0.96,2.04,1000
17:00:15.798,44.73,9.8,-67.34,336.95,-225.24,34.02,1.07,4.03,2.94,1000
17:00:15.809,48.78,7.51,-68.02,137.93,-64.76,-317.99,-5.2,12.11,-10.25,1000
17:00:15.820,51.78,6.48,-69.44,15.79,-532.5,-150.91,3.81,-0.7,2.17,1000
17:00:15.830,53.79,5.27,-71.17,16.34,-72.8,-142.74,2.82,-0.17,0.71,1000
17:00:15.850,55.56,3.15,-72.72,24.27,-2.38,-133.66,-1.04,-1.2,1.63,1000
17:00:15.853,56.69,0.93,-73.93,-31.89,-15.37,-86.46,-0.23,0.18,-0.15,1000
17:00:15.863,57.64,-0.68,-74.37,8.78,115.3,-1.34,-0.76,1.64,2.5,1000
17:00:15.873,54.76,0.1,-74.36,-65.85,96.1,15.3,-0.33,0.22,0.27,1000
17:00:15.885,52.28,1.49,-74.2,-49.27,42.26,22.93,-0.2,-0.1,1.55,1000
17:00:15.895,49.63,2.93,-73.95,-55.3,52.2,27.93,-0.07,-0.05,0.26,1000
17:00:15.907,46.69,4.9,-73.54,-47.2,45.24,44.02,-0.5,0.87,1.38,1000
17:00:15.917,45.29,6.29,-73.17,-52.93,62.56,33.78,-0.14,0.9,0.79,1000
17:00:15.929,43.34,7.05,-72.78,-35.24,-0.79,39.39,-0.14,0.54,0.51,1000
17:00:15.940,40.68,7.0,-72.38,-5.55,-21.34,41.28,0.34,0.39,1.22,1000
17:00:15.951,38.8,6.88,-71.92,12.56,-17.38,36.1,-0.1,0.13,1.14,1000
17:00:15.962,37.4,6.68,-71.54,11.89,-56.1,35.49,-0.11,0.27,1.3,1000
17:00:15.973,36.24,6.46,-71.16,38.84,-49.33,34.63,0.09,-0.03,0.82,1000
17:00:15.983,35.07,5.96,-70.8,46.16,-65.55,34.39,-0.33,0.56,0.86,1000
17:00:15.995,34.36,5.22,-70.42,19.94,-69.94,29.27,0.15,0.72,0.89,1000
17:00:16.006,34.47,3.93,-70.2,-56.65,-17.44,14.33,0.31,0.4,1.37,1000
17:00:16.019,34.52,2.49,-70.16,-29.33,22.74,-3.54,0.73,0.64,0.19,1000
17:00:16.028,34.95,1.07,-70.22,-16.65,37.8,-6.77,0.23,0.58,0.85,1000
17:00:16.039,34.9,0.21,-70.29,-8.23,41.4,-7.13,0.0,0.14,0.92,1000
17:00:16.054,33.82,-0.08,-70.27,-63.17,22.74,2.93,0.49,0.85,0.8,1000
17:00:16.060,32.97,-0.21,-70.19,-39.7,10.12,9.7,0.03,0.38,1.09,1000
17:00:16.072,32.39,-0.26,-70.06,15.24,-5.0,10.43,-0.04,0.32,1.16,1000
17:00:16.082,31.4,-0.13,-69.96,2.62,-12.44,7.56,0.06,0.24,1.01,1000
17:00:16.094,30.12,-0.31,-69.9,5.79,-7.99,3.17,0.16,0.43,0.67,1000
17:00:16.105,29.48,-0.57,-69.86,13.66,-9.39,3.05,-0.02,0.58,1.13,1000
17:00:16.117,29.16,-0.68,-69.84,1.71,-8.54,1.65,0.06,0.51,0.87,1000
17:00:16.127,29.06,-0.87,-69.83,2.68,-1.1,-1.1,0.08,0.47,0.89,1000
17:00:16.138,28.92,-1.02,-69.84,1.28,3.23,-0.55,0.07,0.42,0.94,1000
17:00:16.150,28.69,-1.11,-69.84,-0.49,2.2,-0.43,0.03,0.46,0.85,1000
17:00:16.161,28.49,-1.1,-69.84,0.24,1.46,-0.61,-0.02,0.44,0.92,1000
17:00:16.171,28.28,-0.99,-69.85,0.79,-1.46,-0.06,-0.0,0.49,0.89,1000
17:00:16.183,28.09,-0.91,-69.85,0.18,-2.56,0.12,0.02,0.49,0.9,1000
17:00:16.194,27.94,-0.89,-69.85,-1.52,-0.73,0.06,0.02,0.45,0.92,1000
17:00:16.206,27.76,-0.91,-69.86,-0.06,1.1,-1.22,0.03,0.46,0.92,1000
17:00:16.219,27.64,-0.93,-69.86,0.37,1.65,-0.85,-0.01,0.45,0.93,1000
17:00:16.225,27.49,-0.92,-69.87,-0.73,-0.49,-0.49,0.02,0.43,0.93,1000
17:00:16.237,27.32,-0.94,-69.88,-0.73,-1.4,-0.98,0.04,0.44,0.92,1000
17:00:16.250,27.19,-0.99,-69.88,0.06,-0.06,-0.91,0.01,0.47,0.93,1000
17:00:16.260,27.09,-0.98,-69.89,-0.67,0.67,-0.55,0.02,0.46,0.92,1000
17:00:16.269,27.02,-0.98,-69.89,-0.37,-0.49,-0.61,0.03,0.47,0.93,1000
17:00:16.281,26.96,-0.97,-69.9,-0.49,-0.12,-0.18,0.02,0.47,0.93,1000
17:00:16.291,26.91,-0.96,-69.91,-0.43,0.3,-0.49,0.03,0.46,0.9,1000
17:00:16.303,26.85,-0.95,-69.91,0.06,-0.98,-0.61,0.0,0.48,0.91,1000
17:00:16.321,26.79,-0.95,-69.92,0.3,0.24,-0.79,0.02,0.47,0.93,1000
17:00:16.325,26.73,-0.97,-69.93,-1.1,-0.18,-0.3,0.04,0.45,0.91,1000
17:00:16.336,26.66,-0.99,-69.93,-0.73,-0.43,-0.06,0.03,0.45,0.9,1000
17:00:16.347,26.6,-0.98,-69.93,0.12,-1.1,-0.49,0.01,0.48,0.91,1000
17:00:16.364,26.57,-0.99,-69.94,0.24,-0.49,-0.61,0.03,0.45,0.92,1000
17:00:16.369,26.54,-1.02,-69.95,-0.61,0.98,-0.24,0.01,0.45,0.92,1000
17:00:16.380,26.51,-1.02,-69.95,-0.85,-1.1,-0.49,0.02,0.46,0.92,1000
17:00:16.390,26.48,-0.99,-69.96,0.67,0.06,-0.37,-0.01,0.47,0.91,1000
17:00:16.401,26.47,-0.98,-69.96,0.37,0.18,-0.43,0.03,0.45,0.92,1000
17:00:16.413,26.46,-1.01,-69.97,-0.98,0.85,-0.85,0.02,0.46,0.93,1000
17:00:16.424,26.44,-1.01,-69.98,-0.98,0.06,-0.43,0.01,0.44,0.92,1000
17:00:16.438,26.41,-0.98,-69.98,-0.3,-1.1,-0.37,0.0,0.46,0.92,1000
17:00:16.446,26.4,-0.96,-69.98,0.0,-1.34,-0.73,0.04,0.46,0.92,1000
17:00:16.464,26.4,-0.97,-69.99,-0.37,0.79,-0.43,0.01,0.46,0.94,1000
17:00:16.468,26.38,-0.99,-70.0,-0.06,0.91,-0.67,0.02,0.46,0.92,1000
17:00:16.480,26.36,-0.96,-70.0,0.0,-0.61,-0.49,0.01,0.45,0.93,1000
17:00:16.489,26.34,-0.94,-70.01,0.0,-1.4,-0.37,0.01,0.45,0.91,1000
17:00:16.502,26.34,-0.94,-70.01,-0.85,-1.04,-0.37,0.03,0.47,0.91,1000
17:00:16.513,26.34,-0.94,-70.02,-1.34,-0.12,-0.98,0.02,0.44,0.93,1000
17:00:16.524,26.32,-0.94,-70.02,-0.79,-1.28,-0.55,0.02,0.46,0.91,1000
17:00:16.534,26.32,-0.95,-70.03,-0.79,-0.12,-0.18,0.02,0.48,0.92,1000
17:00:16.546,26.33,-0.98,-70.03,-0.85,-1.34,-0.24,0.05,0.45,0.91,1000
17:00:16.560,26.33,-1.0,-70.04,-0.43,0.61,-0.55,-0.02,0.45,0.93,1000
17:00:16.569,26.32,-1.01,-70.05,-1.71,0.06,-0.37,0.04,0.46,0.91,1000
17:00:16.578,26.32,-1.01,-70.05,0.06,-0.12,-0.61,-0.01,0.45,0.92,1000
17:00:16.589,26.34,-1.03,-70.06,-0.55,1.1,-0.37,-0.01,0.43,0.93,1000
17:00:16.600,26.35,-1.03,-70.06,-0.12,0.0,0.0,0.01,0.45,0.89,1000
17:00:16.612,26.36,-1.03,-70.07,-1.28,-1.52,-1.04,0.04,0.45,0.92,1000
17:00:16.626,26.36,-1.04,-70.07,-0.79,-0.43,-0.43,0.03,0.47,0.93,1000
17:00:16.633,26.35,-1.07,-70.08,-0.49,0.0,-0.49,0.03,0.46,0.94,1000
17:00:16.644,26.35,-1.06,-70.09,0.91,2.2,-0.49,-0.01,0.47,0.92,1000
17:00:16.671,26.35,-1.05,-70.09,-0.55,-0.43,-0.49,0.04,0.46,0.91,1000
17:00:16.671,26.36,-1.04,-70.1,-0.3,-0.12,-0.55,0.01,0.46,0.93,1000
17:00:16.678,26.36,-1.04,-70.11,0.24,0.98,-0.49,0.03,0.47,0.92,1000
17:00:16.688,26.35,-1.06,-70.11,-0.91,-0.24,-0.61,0.03,0.45,0.93,1000
17:00:16.699,26.35,-1.06,-70.12,-0.24,0.73,-0.43,0.02,0.45,0.94,1000
17:00:16.710,26.35,-1.08,-70.12,0.0,-2.07,-0.67,0.02,0.46,0.89,1000
17:00:16.722,26.35,-1.06,-70.13,0.12,0.49,-0.55,0.01,0.45,0.92,1000
17:00:16.732,26.35,-1.06,-70.13,-0.67,-0.61,-0.55,0.03,0.45,0.91,1000
17:00:16.747,26.35,-1.06,-70.14,-0.24,-0.18,-0.61,0.01,0.45,0.92,1000
17:00:16.754,26.34,-1.06,-70.15,0.61,0.67,-0.55,0.02,0.46,0.92,1000
17:00:16.774,26.34,-1.06,-70.15,-0.37,0.0,-0.55,0.01,0.47,0.92,1000
17:00:16.777,26.35,-1.06,-70.16,-0.55,0.24,-1.1,0.01,0.46,0.92,1000
17:00:16.787,26.35,-1.06,-70.17,-0.98,-1.28,-0.73,0.02,0.43,0.91,1000
17:00:16.800,26.34,-1.06,-70.17,0.85,0.0,-0.61,0.02,0.47,0.9,1000
17:00:16.811,26.34,-1.07,-70.18,0.06,-1.4,-0.49,0.03,0.47,0.93,1000
17:00:16.820,26.33,-1.07,-70.18,-1.1,0.37,-0.3,-0.0,0.49,0.93,1000
17:00:16.831,26.32,-1.06,-70.19,-0.79,-0.24,-1.16,0.03,0.48,0.93,1000
17:00:16.844,26.32,-1.07,-70.19,-1.1,-1.16,0.12,0.04,0.45,0.93,1000
17:00:16.853,26.31,-1.09,-70.2,-0.67,0.24,-0.43,0.04,0.45,0.92,1000
17:00:16.867,26.3,-1.11,-70.2,0.3,0.0,-0.55,0.01,0.48,0.93,1000
17:00:16.875,26.28,-1.1,-70.21,-0.43,0.18,-0.67,-0.0,0.49,0.94,1000
17:00:16.886,26.28,-1.09,-70.21,0.0,-0.12,-0.49,0.02,0.47,0.93,1000
17:00:16.897,26.27,-1.1,-70.22,0.12,-0.49,-0.67,0.01,0.46,0.91,1000
17:00:16.908,26.28,-1.1,-70.23,-0.06,-0.12,-0.06,0.01,0.44,0.91,1000
17:00:16.919,26.28,-1.11,-70.23,-0.67,-0.43,-0.3,0.03,0.45,0.9,1000
17:00:16.931,26.29,-1.11,-70.24,0.0,0.12,-0.73,0.04,0.46,0.89,1000
17:00:16.941,26.28,-1.11,-70.24,-0.43,-0.49,-0.61,0.02,0.44,0.94,1000
17:00:16.952,26.29,-1.13,-70.25,-0.49,-0.55,-0.37,0.0,0.43,0.92,1000
17:00:16.963,26.3,-1.13,-70.25,-0.37,-0.37,-0.37,0.05,0.48,0.89,1000
17:00:16.978,26.31,-1.13,-70.26,-0.12,-0.37,-0.73,0.03,0.47,0.92,1000
17:00:16.985,26.32,-1.14,-70.26,0.0,0.55,-0.37,-0.0,0.45,0.92,1000
17:00:16.995,26.33,-1.14,-70.27,-1.22,0.0,-0.49,0.04,0.48,0.92,1000
17:00:17.006,26.34,-1.15,-70.28,-1.1,-0.61,-0.79,0.03,0.46,0.92,1000
17:00:17.021,26.35,-1.14,-70.28,-0.73,0.3,-0.61,0.02,0.44,0.92,1000
17:00:17.028,26.35,-1.14,-70.28,-0.06,-0.55,-0.43,0.02,0.43,0.9,1000
17:00:17.040,26.34,-1.14,-70.29,0.61,0.12,-0.12,0.02,0.49,0.92,1000
17:00:17.051,26.35,-1.15,-70.3,0.06,0.0,-0.73,0.02,0.47,0.91,1000
17:00:17.062,26.34,-1.16,-70.3,-0.24,-0.49,-0.37,-0.01,0.45,0.92,1000
17:00:17.080,26.34,-1.17,-70.31,-0.18,0.61,-0.43,0.03,0.48,0.9,1000
17:00:17.084,26.34,-1.17,-70.31,-0.24,-0.55,-0.79,0.02,0.47,0.92,1000
17:00:17.095,26.34,-1.18,-70.32,0.0,0.49,-0.73,0.01,0.46,0.91,1000
17:00:17.105,26.35,-1.19,-70.32,-0.18,-0.12,-0.24,0.02,0.46,0.91,1000
17:00:17.118,26.35,-1.18,-70.33,-0.37,0.24,-0.49,0.04,0.47,0.91,1000
17:00:17.127,26.36,-1.19,-70.33,-0.37,-0.12,-0.73,0.02,0.45,0.91,1000
17:00:17.141,26.36,-1.19,-70.34,-0.24,-0.24,-0.49,0.02,0.46,0.92,1000
17:00:17.150,26.36,-1.19,-70.34,-0.37,0.0,-0.49,0.03,0.47,0.91,1000
17:00:17.160,26.36,-1.19,-70.35,-0.49,-0.18,-0.55,0.02,0.46,0.92,1000
17:00:17.182,26.37,-1.19,-70.36,-0.43,-0.12,-0.61,0.02,0.45,0.92,1000
17:00:17.183,26.37,-1.19,-70.36,-0.37,-0.55,-0.18,0.02,0.46,0.92,1000
17:00:17.193,26.36,-1.18,-70.37,-0.3,-0.43,-0.61,0.03,0.46,0.92,1000
17:00:17.205,26.36,-1.18,-70.37,-0.3,-0.12,-0.61,0.02,0.46,0.91,1000
17:00:17.217,26.37,-1.18,-70.38,-0.3,-0.43,-0.3,0.02,0.46,0.92,1000
17:00:17.227,26.37,-1.18,-70.39,-0.37,-0.06,-0.61,0.02,0.46,0.92,1000
17:00:17.240,26.37,-1.18,-70.39,-0.3,-0.37,-0.55,0.03,0.46,0.92,1000
17:00:17.249,26.38,-1.18,-70.4,-0.24,0.0,-0.91,0.02,0.46,0.92,1000
17:00:17.259,26.39,-1.18,-70.4,-0.37,-0.18,-0.49,0.02,0.46,0.92,1000
17:00:17.271,26.39,-1.18,-70.41,-0.24,-0.49,-0.43,0.03,0.46,0.92,1000
17:00:17.283,26.39,-1.18,-70.42,-0.24,0.0,-0.43,0.02,0.46,0.92,1000
17:00:17.293,26.39,-1.18,-70.42,-0.37,-0.55,-0.49,0.02,0.46,0.92,1000
17:00:17.303,26.4,-1.19,-70.43,-0.24,-0.06,-0.61,0.02,0.46,0.92,1000
17:00:17.314,26.4,-1.19,-70.43,-0.37,-0.37,-0.61,0.02,0.46,0.92,1000
17:00:17.325,26.4,-1.19,-70.44,-0.24,-0.3,-0.73,0.03,0.46,0.92,1000
17:00:17.336,26.4,-1.19,-70.44,-0.24,-0.37,-0.3,0.02,0.46,0.92,1000
17:00:17.348,26.4,-1.18,-70.45,-0.24,0.0,-0.67,0.03,0.46,0.92,1000
17:00:17.358,26.41,-1.18,-70.46,-0.37,0.0,-0.61,0.02,0.46,0.92,1000
17:00:17.369,26.41,-1.18,-70.46,-0.37,-0.43,-0.61,0.03,0.46,0.92,1000
17:00:17.387,26.41,-1.18,-70.47,-0.24,0.06,-0.49,0.02,0.46,0.92,1000
17:00:17.391,26.41,-1.18,-70.47,-0.24,-0.3,-0.55,0.02,0.46,0.92,1000
17:00:17.402,26.41,-1.18,-70.48,-0.06,-0.12,-0.67,0.02,0.46,0.92,1000
17:00:17.414,26.41,-1.19,-70.48,-0.24,-0.24,-0.55,0.02,0.46,0.92,1000
17:00:17.425,26.41,-1.19,-70.49,-0.12,-0.24,-0.61,0.03,0.46,0.92,1000
17:00:17.435,26.41,-1.19,-70.5,-0.37,-0.18,-0.61,0.02,0.46,0.92,1000
17:00:17.448,26.42,-1.19,-70.5,-0.3,-0.24,-0.61,0.02,0.46,0.92,1000
17:00:17.458,26.42,-1.19,-70.51,-0.37,-0.18,-0.43,0.02,0.46,0.92,1000
17:00:17.469,26.42,-1.2,-70.52,-0.3,-0.18,-0.55,0.02,0.46,0.92,1000
17:00:17.487,26.42,-1.2,-70.52,-0.37,-0.3,-0.49,0.02,0.46,0.92,1000
17:00:17.492,26.42,-1.2,-70.53,-0.24,-0.18,-0.43,0.02,0.46,0.92,1000
17:00:17.503,26.42,-1.2,-70.53,-0.18,-0.12,-0.49,0.02,0.46,0.92,1000
17:00:17.513,26.43,-1.21,-70.54,-0.3,-0.18,-0.55,0.02,0.46,0.92,1000
17:00:17.526,26.43,-1.21,-70.54,-0.37,-0.18,-0.55,0.02,0.46,0.92,1000
17:00:17.535,26.43,-1.21,-70.55,-0.3,-0.18,-0.61,0.02,0.46,0.92,1000
17:00:17.546,26.43,-1.21,-70.56,-0.3,-0.18,-0.55,0.02,0.46,0.92,1000
17:00:17.557,26.43,-1.2,-70.56,-0.37,-0.18,-0.43,0.02,0.46,0.92,1000
17:00:17.571,26.43,-1.2,-70.57,-0.37,-0.12,-0.49,0.02,0.46,0.92,1000
17:00:17.582,26.43,-1.2,-70.57,-0.24,-0.18,-0.49,0.02,0.46,0.92,1000
17:00:17.590,26.42,-1.2,-70.58,-0.43,-0.18,-0.61,0.02,0.46,0.92,1000
17:00:17.601,26.42,-1.21,-70.58,-0.37,-0.37,-0.61,0.02,0.46,0.92,1000
17:00:17.612,26.42,-1.21,-70.59,-0.24,-0.18,-0.55,0.02,0.46,0.92,1000
17:00:17.623,26.42,-1.21,-70.6,-0.24,-0.12,-0.43,0.02,0.46,0.92,1000
17:00:17.634,26.43,-1.21,-70.6,-0.24,-0.18,-0.73,0.02,0.46,0.92,1000
17:00:17.644,26.43,-1.21,-70.61,-0.3,-0.18,-0.43,0.02,0.46,0.92,1000
17:00:17.655,26.42,-1.21,-70.61,-0.3,-0.24,-0.55,0.02,0.46,0.92,1000
17:00:17.667,26.43,-1.21,-70.62,-0.18,-0.06,-0.55,0.02,0.46,0.92,1000
17:00:17.678,26.43,-1.21,-70.62,-0.24,-0.12,-0.49,0.02,0.46,0.92,1000
17:00:17.693,26.43,-1.21,-70.63,-0.24,-0.24,-0.43,0.02,0.46,0.92,1000
17:00:17.700,26.43,-1.21,-70.64,-0.3,-0.18,-0.43,0.02,0.46,0.92,1000
17:00:17.710,26.43,-1.21,-70.64,-0.37,-0.24,-0.55,0.02,0.46,0.92,1000
17:00:17.724,26.43,-1.21,-70.65,-0.37,-0.18,-0.49,0.02,0.46,0.92,1000
17:00:17.733,26.43,-1.21,-70.65,-0.3,-0.3,-0.49,0.02,0.46,0.92,1000
17:00:17.744,26.43,-1.21,-70.66,-0.24,-0.18,-0.61,0.02,0.46,0.92,1000
17:00:17.755,26.43,-1.21,-70.66,-0.3,-0.3,-0.61,0.02,0.46,0.92,1000
17:00:17.768,26.43,-1.21,-70.67,-0.18,-0.12,-0.43,0.02,0.46,0.92,1000
17:00:17.777,26.43,-1.21,-70.68,-0.24,-0.18,-0.49,0.02,0.46,0.92,1000
17:00:17.798,26.43,-1.21,-70.68,-0.43,-0.06,-0.79,0.02,0.46,0.92,1000
17:00:17.801,26.43,-1.21,-70.69,-0.3,-0.12,-0.43,0.02,0.46,0.92,1000
17:00:17.815,26.43,-1.21,-70.69,-0.24,-0.3,-0.55,0.02,0.46,0.92,1000
17:00:17.820,26.44,-1.21,-70.7,-0.3,-0.12,-0.61,0.02,0.46,0.92,1000
17:00:17.832,26.44,-1.21,-70.71,-0.18,-0.24,-0.61,0.02,0.46,0.92,1000
17:00:17.843,26.44,-1.21,-70.71,-0.18,-0.24,-0.43,0.02,0.46,0.92,1000
17:00:17.854,26.44,-1.21,-70.72,-0.37,-0.12,-0.61,0.02,0.46,0.92,1000
17:00:17.865,26.44,-1.21,-70.73,-0.24,-0.06,-0.49,0.02,0.46,0.92,1000
17:00:17.877,26.44,-1.21,-70.73,-0.37,-0.18,-0.49,0.02,0.46,0.92,1000
17:00:17.888,26.44,-1.21,-70.74,-0.37,-0.18,-0.61,0.02,0.46,0.92,1000
17:00:17.899,26.45,-1.21,-70.74,-0.37,-0.18,-0.61,0.02,0.46,0.92,1000
17:00:17.909,26.44,-1.21,-70.75,-0.24,-0.3,-0.55,0.02,0.46,0.92,1000
17:00:17.919,26.44,-1.22,-70.76,-0.37,-0.18,-0.43,0.02,0.46,0.92,1000
17:00:17.930,26.44,-1.22,-70.76,-0.3,-0.3,-0.43,0.02,0.46,0.92,1000
17:00:17.941,26.44,-1.22,-70.77,-0.24,-0.12,-0.55,0.02,0.46,0.92,1000
17:00:17.954,26.44,-1.22,-70.77,-0.37,-0.06,-0.73,0.02,0.46,0.92,1000
17:00:17.963,26.44,-1.22,-70.78,-0.37,-0.18,-0.55,0.02,0.46,0.92,1000
17:00:17.980,26.44,-1.22,-70.79,-0.3,-0.24,-0.55,0.02,0.46,0.92,1000
17:00:17.988,26.44,-1.22,-70.79,-0.24,-0.18,-0.49,0.02,0.46,0.92,1000
17:00:18.003,26.44,-1.22,-70.8,-0.37,-0.18,-0.49,0.02,0.46,0.92,1000
17:00:18.007,26.45,-1.22,-70.8,-0.43,-0.18,-0.24,0.02,0.46,0.92,1000
17:00:18.019,26.45,-1.22,-70.81,-0.24,-0.18,-0.49,0.02,0.46,0.92,1000
17:00:18.030,26.45,-1.23,-70.81,-0.24,-0.18,-0.49,0.02,0.46,0.92,1000
17:00:18.041,26.45,-1.23,-70.82,-0.3,-0.24,-0.49,0.02,0.46,0.92,1000
17:00:18.051,26.46,-1.23,-70.82,-0.3,-0.12,-0.55,0.02,0.46,0.92,1000
17:00:18.062,26.46,-1.23,-70.83,-0.37,-0.3,-0.61,0.02,0.46,0.92,1000
17:00:18.075,26.46,-1.23,-70.84,-0.49,-0.3,-0.61,0.02,0.46,0.92,1000
17:00:18.085,26.46,-1.23,-70.84,-0.37,-0.12,-0.49,0.02,0.46,0.92,1000
17:00:18.098,26.46,-1.23,-70.85,-0.37,-0.18,-0.61,0.02,0.46,0.92,1000
17:00:18.106,26.46,-1.23,-70.85,-0.49,-0.18,-0.55,0.02,0.46,0.92,1000
17:00:18.118,26.46,-1.23,-70.86,-0.37,-0.18,-0.61,0.02,0.46,0.92,1000
17:00:18.129,26.46,-1.23,-70.87,-0.3,-0.12,-0.73,0.02,0.46,0.92,1000
17:00:18.140,26.47,-1.23,-70.87,-0.3,-0.18,-0.55,0.02,0.46,0.92,1000
17:00:18.152,26.47,-1.23,-70.88,-0.24,-0.18,-0.55,0.02,0.46,0.92,1000
17:00:18.165,26.47,-1.23,-70.88,-0.37,-0.12,-0.73,0.03,0.46,0.92,1000
17:00:18.173,26.47,-1.23,-70.89,-0.24,-0.12,-0.49,0.02,0.46,0.92,1000
17:00:18.186,26.47,-1.23,-70.89,-0.3,-0.06,-0.73,0.02,0.46,0.92,1000
17:00:18.196,26.47,-1.23,-70.9,-0.37,-0.18,-0.61,0.02,0.46,0.92,1000
17:00:18.206,26.47,-1.23,-70.91,-0.3,-0.12,-0.43,0.02,0.46,0.92,1000
17:00:18.216,26.47,-1.23,-70.91,-0.3,-0.24,-0.49,0.02,0.46,0.92,1000
17:00:18.228,26.47,-1.23,-70.92,-0.3,-0.24,-0.43,0.02,0.46,0.92,1000
17:00:18.239,26.47,-1.23,-70.92,-0.3,0.0,-0.55,0.02,0.46,0.92,1000
17:00:18.250,26.43,-1.02,-70.92,-5.43,-23.48,4.94,-0.31,0.38,0.78,1000
17:00:18.264,26.52,-0.39,-70.83,-8.84,-35.0,9.15,-0.2,0.96,1.0,1000
17:00:18.272,26.7,-0.22,-70.72,-17.26,2.87,11.1,0.2,0.6,0.9,1000
17:00:18.282,27.22,-0.92,-70.6,-5.73,-0.91,12.32,0.22,0.35,0.69,1000
17:00:18.295,27.05,-1.45,-70.49,-13.6,3.9,7.74,-0.01,0.23,1.23,1000
17:00:18.306,26.46,-1.69,-70.43,-3.29,-1.95,2.44,-0.03,0.32,0.95,1000
17:00:18.316,25.9,-1.8,-70.41,-5.0,-10.0,0.12,0.08,0.46,0.93,1000
17:00:18.331,25.66,-2.13,-70.43,-1.34,2.74,-5.18,0.25,0.53,0.94,1000
17:00:18.338,25.53,-2.56,-70.51,2.2,4.27,-9.7,0.04,0.42,0.9,1000
17:00:18.350,25.25,-2.67,-70.63,11.46,11.04,-13.72,0.13,0.26,0.98,1000
17:00:18.359,24.78,-2.92,-70.81,22.01,17.62,-19.88,0.14,0.31,0.83,1000
17:00:18.371,25.05,-2.95,-71.03,-6.1,-5.55,-17.93,-0.36,0.59,0.69,1000
17:00:18.383,25.62,-2.54,-71.2,2.2,-4.94,-10.73,-0.11,0.7,0.51,1000
17:00:18.392,26.2,-2.08,-71.35,1.46,6.22,-14.15,0.11,0.69,0.79,1000
17:00:18.412,26.62,-2.02,-71.56,-13.41,14.09,-26.59,0.12,0.51,0.97,1000
17:00:18.417,26.71,-2.14,-71.98,-14.63,16.89,-46.04,0.12,0.44,0.88,1000
17:00:18.426,26.77,-2.11,-72.56,-20.24,10.06,-61.4,-0.15,0.59,1.0,1000
17:00:18.436,27.0,-1.8,-73.18,-27.99,22.07,-52.13,0.22,0.81,0.91,1000
17:00:18.448,27.31,-2.19,-73.6,-23.05,46.65,-24.27,0.23,0.24,0.77,1000
17:00:18.459,26.9,-2.33,-73.87,-33.35,58.29,-30.3,0.09,0.31,1.07,1000
17:00:18.473,25.96,-2.05,-74.19,-38.66,57.93,-25.85,0.09,0.45,0.96,1000
17:00:18.481,25.31,-1.48,-74.45,-33.35,48.23,-24.21,-0.24,0.46,0.96,1000
17:00:18.494,24.96,-0.31,-74.75,-32.87,35.12,-26.71,-0.36,0.53,0.83,1000
17:00:18.505,24.87,1.04,-75.02,-35.55,27.13,-27.38,-0.33,0.51,0.8,1000
17:00:18.515,25.15,2.58,-75.28,-29.51,15.0,-18.35,-0.29,0.76,0.59,1000
17:00:18.525,26.16,3.77,-75.43,-5.18,8.48,-7.44,-0.35,0.83,0.65,1000
17:00:18.536,27.54,4.97,-75.52,8.29,1.65,-11.95,-0.52,0.7,0.67,1000
17:00:18.547,29.17,6.72,-75.73,17.32,-12.5,-22.38,-0.29,0.37,0.9,1000
17:00:18.558,29.95,7.94,-75.97,46.77,-4.57,-20.79,-0.06,0.16,0.76,1000
17:00:18.569,30.12,8.46,-76.15,19.94,-47.5,-15.85,-0.12,0.59,1.27,1000
17:00:18.580,29.62,8.04,-76.38,20.98,-43.66,-25.3,-0.07,0.55,0.9,1000
17:00:18.591,29.04,7.49,-76.67,23.9,-50.37,-26.34,-0.0,0.29,0.92,1000
17:00:18.603,28.26,6.7,-76.97,27.44,-58.96,-21.89,-0.04,0.32,0.92,1000
17:00:18.614,27.34,6.04,-77.17,34.09,-56.34,-15.67,-0.11,0.31,0.94,1000
17:00:18.624,27.0,5.37,-77.33,45.18,-62.38,-13.48,-0.06,0.54,0.88,1000
17:00:18.635,26.89,4.46,-77.48,50.06,-63.78,-10.43,0.08,0.39,0.92,1000
17:00:18.646,26.91,3.53,-77.52,66.16,-57.01,9.76,0.02,0.45,1.23,1000
17:00:18.656,26.83,2.63,-77.4,61.83,-59.45,13.48,0.25,0.29,1.14,1000
17:00:18.667,27.0,1.39,-77.24,50.61,-49.7,8.17,0.33,0.56,1.07,1000
17:00:18.678,27.22,-0.3,-77.22,25.79,-17.38,-5.91,0.28,0.47,0.86,1000
17:00:18.690,27.58,-1.61,-77.33,5.79,15.91,-12.5,0.22,0.56,0.75,1000
17:00:18.700,27.84,-2.44,-77.46,-8.48,35.79,-10.73,0.15,0.55,0.92,1000
17:00:18.712,28.17,-2.53,-77.58,-10.49,40.67,-11.22,-0.02,0.67,0.98,1000
17:00:18.723,28.8,-2.38,-77.71,-3.72,33.41,-13.41,-0.02,0.71,0.89,1000
17:00:18.733,29.58,-2.01,-77.87,4.82,25.0,-16.77,-0.02,0.62,0.78,1000
17:00:18.744,30.47,-1.56,-78.04,14.02,18.05,-13.35,-0.07,0.74,0.9,1000
17:00:18.755,31.64,-0.96,-78.2,17.32,1.95,-12.56,-0.04,0.64,0.84,1000
17:00:18.767,33.12,-0.29,-78.37,22.07,-9.82,-13.78,-0.19,0.75,0.6,1000
17:00:18.779,34.5,0.34,-78.48,33.29,-19.02,-8.72,0.06,0.62,0.81,1000
17:00:18.789,35.71,0.63,-78.57,33.72,-13.41,-5.37,-0.07,0.85,0.66,1000
17:00:18.800,36.97,0.86,-78.62,30.18,-18.29,-3.23,-0.11,0.75,0.72,1000
17:00:18.821,38.19,1.08,-78.64,36.52,-17.32,0.85,-0.05,0.6,0.66,1000
17:00:18.822,39.27,1.22,-78.6,44.51,-15.98,7.44,0.14,0.57,0.64,1000
17:00:18.833,40.25,1.33,-78.51,46.71,-15.98,12.8,-0.08,0.79,0.71,1000
17:00:18.843,41.07,1.58,-78.37,32.32,-1.4,17.5,0.02,0.73,0.86,1000
17:00:18.856,41.62,1.84,-78.15,16.65,22.38,24.88,-0.04,0.79,0.71,1000
17:00:18.865,42.02,2.14,-77.85,10.73,41.46,31.59,-0.09,0.64,0.75,1000
17:00:18.876,42.02,2.39,-77.46,-0.55,52.68,42.93,-0.16,0.78,0.73,1000
17:00:18.888,41.87,2.87,-76.89,-7.01,54.09,51.4,-0.16,0.66,0.7,1000
17:00:18.900,41.75,3.42,-76.28,-6.16,59.57,59.7,-0.04,0.49,0.7,1000
17:00:18.912,41.44,3.93,-75.66,-12.5,56.34,63.35,-0.15,0.58,0.79,1000
17:00:18.921,40.94,4.57,-74.87,-10.18,58.11,66.89,0.09,0.48,0.95,1000
17:00:18.931,40.33,5.02,-74.21,-13.23,64.27,64.88,-0.13,0.73,0.92,1000
17:00:18.943,39.63,5.55,-73.46,-14.51,64.21,60.12,0.01,0.54,0.91,1000
17:00:18.953,38.89,5.89,-72.87,-11.83,62.07,57.07,-0.01,0.48,0.99,1000
17:00:18.965,38.12,6.39,-72.18,-13.23,60.37,56.95,-0.04,0.51,0.87,1000
17:00:18.976,37.34,6.82,-71.56,-14.7,61.16,57.13,-0.01,0.39,0.95,1000
17:00:18.987,36.55,7.22,-71.0,-19.33,61.77,55.55,-0.12,0.42,0.76,1000
17:00:18.997,35.9,7.76,-70.38,-24.15,55.12,55.55,-0.14,0.48,0.8,1000
17:00:19.008,35.24,8.38,-69.74,-35.12,65.73,59.88,-0.2,0.46,0.6,1000
17:00:19.020,34.6,9.11,-69.01,-44.51,68.9,62.01,0.07,0.25,0.71,1000
17:00:19.031,33.71,9.55,-68.33,-53.96,70.61,60.67,0.04,0.36,0.93,1000
17:00:19.043,32.53,9.84,-67.72,-62.44,74.09,59.82,0.19,0.21,1.63,1000
17:00:19.052,30.55,9.83,-67.08,-63.29,90.18,53.9,-0.02,0.25,1.2,1000
17:00:19.063,28.54,9.79,-66.52,-64.09,86.22,43.35,-0.05,0.35,1.3,1000
17:00:19.074,26.53,9.58,-66.1,-50.79,87.56,29.76,-0.2,0.43,0.88,1000
17:00:19.087,24.84,9.69,-65.8,-52.2,79.76,19.88,-0.07,0.35,1.17,1000
17:00:19.097,23.42,9.79,-65.65,-50.37,74.63,8.66,-0.23,0.21,0.82,1000
17:00:19.107,22.03,10.19,-65.58,-51.1,66.71,2.13,-0.27,0.36,1.3,1000
17:00:19.118,20.82,10.96,-65.56,-62.56,56.4,0.98,-0.27,0.3,0.98,1000
17:00:19.134,19.48,11.66,-65.57,-79.88,29.51,-2.07,-0.16,0.18,1.17,1000
17:00:19.140,17.98,11.99,-65.6,-83.72,16.46,-6.22,-0.25,0.12,1.15,1000
17:00:19.151,16.38,12.02,-65.68,-71.95,19.63,-9.63,-0.01,0.13,0.65,1000
17:00:19.164,15.09,12.01,-65.83,-42.44,50.18,-14.45,-0.15,0.12,0.78,1000
17:00:19.173,14.1,12.03,-66.0,-26.34,58.35,-21.22,-0.22,0.08,1.0,1000
17:00:19.184,12.86,12.18,-66.27,-39.27,48.23,-32.2,-0.23,0.09,1.33,1000
17:00:19.195,11.7,12.44,-66.7,-79.88,29.45,-47.26,-0.24,0.31,0.79,1000
17:00:19.206,11.44,13.1,-67.23,-75.98,32.74,-46.4,-0.52,0.47,0.71,1000
17:00:19.219,11.97,14.37,-67.68,-37.5,40.61,-33.23,-0.33,0.34,0.31,1000
17:00:19.229,12.26,15.63,-68.0,-27.44,35.67,-25.55,-0.44,0.19,1.18,1000
17:00:19.239,11.93,16.6,-68.24,-47.74,9.15,-19.82,-0.5,0.07,1.46,1000
17:00:19.250,10.94,16.88,-68.48,-78.72,2.2,-24.63,-0.38,0.08,1.32,1000
17:00:19.261,10.07,16.73,-68.78,-84.27,-3.41,-27.87,-0.32,0.37,1.1,1000
17:00:19.272,9.91,16.59,-69.1,-46.65,14.57,-30.91,-0.14,0.44,0.48,1000
17:00:19.285,10.56,16.52,-69.53,-39.57,7.38,-41.52,-0.13,0.21,1.27,1000
17:00:19.294,10.53,16.17,-69.95,-45.98,-3.9,-42.07,-0.5,0.12,1.16,1000
17:00:19.307,9.81,15.77,-70.38,-61.71,-19.7,-34.94,-0.15,0.04,1.11,1000
17:00:19.316,8.87,15.41,-70.7,-51.83,-15.12,-19.94,-0.11,0.05,0.76,1000
17:00:19.332,7.91,15.08,-70.85,-47.01,-17.13,-7.68,-0.25,0.04,0.98,1000
17:00:19.338,6.8,14.59,-70.89,-56.4,-24.94,1.52,-0.26,-0.02,1.34,1000
17:00:19.349,5.32,13.87,-70.82,-80.12,-45.12,12.32,-0.05,-0.21,1.11,1000
17:00:19.360,3.36,12.8,-70.64,-88.54,-47.32,21.89,-0.11,-0.14,1.08,1000
17:00:19.371,1.5,11.68,-70.37,-83.11,-35.73,29.21,-0.01,-0.07,0.83,1000
17:00:19.382,0.11,10.74,-70.01,-61.52,-21.71,35.43,-0.04,-0.02,1.01,1000
17:00:19.394,-0.88,9.68,-69.6,-40.3,-8.41,42.01,-0.08,-0.08,0.98,1000
17:00:19.406,-1.54,8.95,-69.05,-20.3,2.01,52.2,-0.07,-0.09,1.02,1000
17:00:19.416,-2.13,8.53,-68.41,-16.65,5.06,65.61,-0.17,-0.09,0.95,1000
17:00:19.426,-2.64,8.51,-67.69,-18.84,4.7,78.72,-0.26,-0.06,1.07,1000
17:00:19.440,-3.03,8.78,-66.76,-20.79,5.55,91.52,-0.22,-0.02,0.94,1000
17:00:19.449,-3.21,9.12,-65.62,-17.44,11.4,99.7,-0.21,0.06,0.9,1000
17:00:19.460,-2.9,9.62,-64.5,-2.62,27.56,102.44,-0.22,0.08,0.87,1000
17:00:19.471,-2.31,10.14,-63.47,15.0,39.94,103.54,-0.16,0.07,0.86,1000
17:00:19.481,-1.41,10.57,-62.34,32.32,49.57,100.61,-0.08,0.09,0.92,1000
17:00:19.496,-0.49,10.73,-61.27,41.1,54.45,93.11,-0.13,0.07,1.02,1000
17:00:19.503,0.47,10.83,-60.29,46.95,51.4,83.41,-0.18,0.17,1.09,1000
17:00:19.516,1.56,11.01,-59.43,45.49,46.04,70.49,-0.18,0.21,1.02,1000
17:00:19.527,2.67,11.26,-58.72,43.48,40.49,57.38,-0.21,0.23,1.03,1000
17:00:19.537,3.73,11.55,-58.14,46.28,36.83,46.16,-0.25,0.23,0.98,1000
17:00:19.547,4.94,11.93,-57.67,49.7,34.02,38.9,-0.27,0.23,0.94,1000
17:00:19.559,6.32,12.48,-57.23,55.49,30.98,33.48,-0.3,0.23,0.94,1000
17:00:19.569,7.54,13.03,-56.91,59.27,26.77,30.3,-0.29,0.21,0.94,1000
17:00:19.580,8.6,13.55,-56.58,66.89,21.83,29.76,-0.29,0.16,0.96,1000
17:00:19.593,9.44,13.97,-56.24,77.26,14.57,32.56,-0.3,0.12,0.94,1000
17:00:19.603,10.26,14.42,-55.82,89.15,7.13,38.9,-0.33,0.14,0.92,1000
17:00:19.614,10.96,14.9,-55.41,98.84,0.55,43.78,-0.33,0.19,0.88,1000
17:00:19.629,12.36,15.31,-54.86,38.54,-53.54,46.16,-1.03,0.99,1.51,1000
17:00:19.636,13.51,15.51,-54.37,51.16,-64.63,48.05,-0.3,0.3,0.68,1000
17:00:19.646,14.55,15.43,-53.82,36.34,-76.1,50.79,-0.42,0.5,0.71,1000
17:00:19.658,15.37,15.26,-53.16,37.99,-74.76,57.93,-0.39,0.16,0.86,1000
17:00:19.669,16.11,15.08,-52.48,42.93,-81.1,66.89,-0.37,0.47,1.01,1000
17:00:19.679,16.86,14.69,-51.77,40.0,-94.76,75.37,-0.09,0.29,0.55,1000
17:00:19.690,17.74,14.08,-50.92,50.06,-95.24,81.34,-0.31,0.34,0.86,1000
17:00:19.702,18.49,13.46,-49.98,57.74,-105.24,89.02,-0.28,0.32,0.87,1000
17:00:19.714,19.48,12.58,-48.88,63.9,-128.41,95.55,-0.15,0.39,0.93,1000
17:00:19.724,20.5,11.42,-47.9,83.78,-141.46,100.49,-0.13,0.46,0.83,1000
17:00:19.741,21.67,9.84,-46.77,102.2,-154.21,106.71,-0.13,0.3,0.89,1000
17:00:19.746,22.55,7.94,-45.58,111.52,-162.8,110.06,-0.06,0.23,0.82,1000
17:00:19.756,23.79,5.63,-44.59,0.06,47.38,85.0,1.74,-0.31,2.73,1000
17:00:19.768,24.21,3.8,-44.08,-110.67,152.07,51.16,0.17,1.09,0.11,1000
17:00:19.779,25.61,1.81,-43.78,-107.68,52.01,31.89,0.09,-0.21,1.22,1000
17:00:19.790,25.83,-0.06,-43.46,1.52,48.35,28.23,0.52,0.18,0.58,1000
17:00:19.802,26.75,-2.31,-43.18,83.35,-7.99,33.96,0.74,0.25,0.75,1000
17:00:19.817,27.59,-3.24,-42.97,-12.38,-33.96,2.01,0.1,0.92,2.18,1000
17:00:19.823,27.56,-4.75,-42.89,-24.21,11.77,-2.26,-0.39,0.45,0.24,1000
17:00:19.837,27.89,-6.03,-42.86,-2.74,0.55,1.28,0.03,0.7,1.68,1000
17:00:19.844,27.29,-6.12,-42.86,-27.74,-0.3,-4.51,-0.12,0.54,1.01,1000
17:00:19.856,26.88,-6.05,-42.87,0.12,1.04,1.52,-0.24,0.32,0.86,1000
17:00:19.867,26.59,-5.46,-42.84,14.27,-8.84,2.56,-0.12,0.41,0.89,1000
17:00:19.882,26.4,-4.81,-42.84,8.54,0.55,0.18,0.04,0.59,0.96,1000
17:00:19.889,26.41,-4.64,-42.83,-0.12,3.11,-1.1,0.08,0.42,0.97,1000
17:00:19.901,26.36,-4.49,-42.84,1.04,0.55,-1.4,-0.02,0.41,0.94,1000
17:00:19.915,26.28,-4.22,-42.85,1.65,0.37,-0.73,-0.05,0.4,0.92,1000
17:00:19.921,26.24,-4.03,-42.85,0.79,-0.37,-0.49,0.04,0.43,0.92,1000
17:00:19.939,26.18,-3.84,-42.86,0.0,-0.67,-0.73,0.04,0.44,0.93,1000
17:00:19.948,26.16,-3.71,-42.87,-0.12,-0.61,-0.18,0.03,0.43,0.93,1000
17:00:19.955,26.15,-3.59,-42.87,-0.61,-0.79,-0.3,0.04,0.42,0.93,1000
17:00:19.965,26.13,-3.46,-42.88,0.43,0.18,-0.61,0.02,0.42,0.96,1000
17:00:19.976,26.12,-3.36,-42.88,-0.67,-0.67,-0.61,0.02,0.45,0.93,1000
17:00:19.987,26.12,-3.28,-42.89,0.06,-0.18,-0.55,0.02,0.45,0.93,1000
17:00:19.999,26.1,-3.2,-42.89,0.61,-0.49,-0.49,0.03,0.46,0.92,1000
17:00:20.009,26.08,-3.12,-42.9,-0.61,-0.79,-0.61,0.03,0.44,0.92,1000
17:00:20.021,26.06,-3.05,-42.91,-0.24,0.24,-0.61,0.03,0.44,0.92,1000
17:00:20.031,26.03,-2.95,-42.91,-0.06,-0.18,-0.49,0.03,0.44,0.92,1000
17:00:20.043,26.02,-2.91,-42.92,-0.85,-0.61,-0.61,0.03,0.44,0.92,1000
17:00:20.053,26.01,-2.86,-42.92,-0.85,-0.43,-0.61,0.02,0.43,0.94,1000
17:00:20.064,26.01,-2.83,-42.93,-0.24,0.24,-0.67,0.02,0.45,0.93,1000
17:00:20.075,26.0,-2.79,-42.94,-0.24,0.0,-0.37,0.02,0.45,0.92,1000
17:00:20.086,25.98,-2.73,-42.94,-0.12,-0.55,-0.49,0.03,0.44,0.93,1000
17:00:20.097,25.97,-2.68,-42.95,-0.37,-0.18,-0.61,0.03,0.45,0.92,1000
17:00:20.110,25.97,-2.65,-42.96,-0.43,-0.3,-0.49,0.03,0.44,0.92,1000
17:00:20.119,25.96,-2.61,-42.96,-0.12,-0.43,-0.61,0.03,0.44,0.93,1000
17:00:20.133,25.94,-2.55,-42.97,-0.43,-0.12,-0.61,0.03,0.44,0.93,1000
17:00:20.154,25.93,-2.51,-42.97,-0.37,-0.49,-0.37,0.02,0.44,0.92,1000
17:00:20.154,25.92,-2.48,-42.98,0.0,-0.24,-0.61,0.02,0.44,0.93,1000
17:00:20.166,25.91,-2.45,-42.98,-0.49,-0.12,-0.37,0.03,0.44,0.93,1000
17:00:20.174,25.91,-2.42,-42.99,-0.3,-0.3,-0.49,0.03,0.44,0.92,1000
17:00:20.185,25.91,-2.4,-43.0,-0.12,-0.12,-0.37,0.03,0.44,0.93,1000
17:00:20.199,25.91,-2.38,-43.0,-0.43,-0.3,-0.61,0.03,0.44,0.92,1000
17:00:20.214,25.9,-2.36,-43.01,-0.43,-0.49,-0.43,0.02,0.44,0.93,1000
17:00:20.220,25.9,-2.35,-43.01,-0.3,-0.06,-0.61,0.03,0.44,0.93,1000
17:00:20.236,25.9,-2.32,-43.02,-0.3,0.0,-0.55,0.02,0.44,0.92,1000
17:00:20.255,25.89,-2.3,-43.02,-0.3,-0.37,-0.61,0.03,0.44,0.93,1000
17:00:20.255,25.88,-2.27,-43.03,-0.3,0.12,-0.49,0.03,0.44,0.93,1000
17:00:20.265,25.88,-2.25,-43.04,-0.37,-0.3,-0.55,0.02,0.44,0.93,1000
17:00:20.274,25.87,-2.21,-43.04,-0.18,-0.49,-0.55,0.03,0.44,0.93,1000
17:00:20.285,25.86,-2.2,-43.05,-0.49,0.0,-0.55,0.03,0.44,0.93,1000
17:00:20.299,25.86,-2.19,-43.05,-0.24,-0.24,-0.55,0.02,0.44,0.93,1000
17:00:20.313,25.86,-2.18,-43.06,-0.18,-0.24,-0.49,0.03,0.44,0.93,1000
17:00:20.319,25.86,-2.16,-43.07,-0.37,-0.12,-0.61,0.03,0.44,0.93,1000
17:00:20.357,25.86,-2.16,-43.07,-0.37,-0.3,-0.61,0.03,0.44,0.92,1000
17:00:20.357,25.86,-2.15,-43.08,-0.24,-0.18,-0.55,0.03,0.44,0.92,1000
17:00:20.357,25.86,-2.14,-43.08,-0.37,-0.18,-0.49,0.03,0.44,0.92,1000
17:00:20.363,25.86,-2.14,-43.09,-0.3,-0.37,-0.55,0.03,0.44,0.92,1000
17:00:20.373,25.86,-2.12,-43.1,-0.3,0.0,-0.43,0.03,0.44,0.93,1000
17:00:20.384,25.84,-2.1,-43.1,-0.37,-0.12,-0.37,0.03,0.44,0.93,1000
17:00:20.395,25.83,-2.08,-43.11,-0.3,-0.12,-0.61,0.03,0.44,0.92,1000
17:00:20.405,25.83,-2.06,-43.11,-0.37,-0.12,-0.43,0.03,0.44,0.92,1000
17:00:20.417,25.83,-2.06,-43.12,-0.24,-0.3,-0.73,0.03,0.44,0.93,1000
17:00:20.428,25.83,-2.06,-43.12,-0.24,-0.37,-0.61,0.03,0.44,0.92,1000
17:00:20.440,25.83,-2.06,-43.13,-0.37,-0.06,-0.49,0.03,0.44,0.92,1000
17:00:20.451,25.82,-2.05,-43.14,-0.3,-0.12,-0.73,0.03,0.44,0.93,1000
17:00:20.461,25.82,-2.05,-43.14,-0.3,-0.24,-0.49,0.03,0.44,0.93,1000
17:00:20.473,25.81,-2.04,-43.15,-0.37,-0.06,-0.55,0.02,0.44,0.93,1000
17:00:20.482,25.8,-2.02,-43.15,-0.24,-0.24,-0.43,0.03,0.44,0.92,1000
17:00:20.496,25.79,-2.01,-43.16,-0.37,-0.3,-0.55,0.03,0.44,0.93,1000
17:00:20.506,25.79,-2.01,-43.17,-0.18,-0.24,-0.73,0.03,0.44,0.93,1000
17:00:20.515,25.78,-2.0,-43.17,-0.24,-0.18,-0.55,0.03,0.44,0.92,1000
17:00:20.526,25.78,-1.99,-43.18,-0.61,-2.44,-0.24,0.01,0.44,0.9,1000
17:00:20.540,25.79,-2.0,-43.18,-3.17,-0.43,0.0,0.02,0.48,0.96,1000
17:00:20.553,25.8,-1.99,-43.18,-1.59,-0.3,-0.12,0.03,0.43,0.92,1000
17:00:20.560,25.8,-1.98,-43.18,-2.56,-0.43,0.0,0.02,0.44,0.94,1000
17:00:20.570,25.77,-1.97,-43.18,-0.12,-0.43,-0.43,0.04,0.43,0.92,1000
17:00:20.581,25.73,-2.0,-43.19,0.67,0.06,-0.3,0.04,0.45,0.94,1000
17:00:20.597,25.72,-2.01,-43.19,0.18,0.24,-0.49,0.02,0.45,0.93,1000
17:00:20.603,25.72,-2.0,-43.2,-0.49,-1.59,-0.55,0.03,0.44,0.92,1000
17:00:20.617,25.71,-2.02,-43.2,0.12,-0.3,-0.67,0.03,0.45,0.95,1000
17:00:20.626,25.71,-2.03,-43.21,-0.67,-0.49,-0.73,0.02,0.44,0.93,1000
17:00:20.636,25.7,-2.01,-43.21,-0.12,-0.43,-0.49,0.03,0.44,0.92,1000
17:00:20.648,25.7,-2.01,-43.22,-0.06,0.24,-0.55,0.03,0.44,0.93,1000
17:00:20.661,25.69,-2.01,-43.23,-0.06,-0.3,-0.61,0.02,0.44,0.93,1000
17:00:20.670,25.69,-2.0,-43.23,-0.24,-0.67,-0.43,0.03,0.44,0.93,1000
17:00:20.681,25.69,-2.0,-43.24,0.06,0.85,-0.91,0.03,0.44,0.93,1000
17:00:20.691,25.69,-1.98,-43.24,0.43,2.38,-0.73,0.03,0.45,0.92,1000
17:00:20.704,25.69,-1.95,-43.25,0.37,2.62,-0.73,0.03,0.44,0.93,1000
17:00:20.714,25.7,-1.94,-43.26,-0.18,-0.73,-0.61,0.02,0.44,0.91,1000
17:00:20.725,25.71,-1.92,-43.27,-0.24,-0.85,-0.43,0.02,0.44,0.92,1000
17:00:20.738,25.72,-1.91,-43.27,-0.67,-0.06,-0.55,0.02,0.44,0.93,1000
17:00:20.747,25.72,-1.89,-43.28,-0.3,-0.49,-0.73,0.02,0.44,0.92,1000
17:00:20.758,25.72,-1.89,-43.28,-0.18,-0.24,-0.61,0.03,0.44,0.92,1000
17:00:20.782,25.71,-1.89,-43.29,-0.37,-1.28,-0.49,0.01,0.44,0.93,1000
17:00:20.783,25.71,-1.88,-43.3,-0.37,0.18,-0.61,0.02,0.44,0.93,1000
17:00:20.803,25.71,-1.87,-43.3,-0.3,-0.37,-0.73,0.02,0.44,0.92,1000
17:00:20.803,25.7,-1.87,-43.31,-0.12,0.3,-0.37,0.03,0.44,0.92,1000
17:00:20.812,25.69,-1.86,-43.31,-0.06,0.0,-0.49,0.03,0.44,0.93,1000
17:00:20.824,25.69,-1.85,-43.32,-0.37,-0.43,-0.61,0.03,0.44,0.92,1000
17:00:20.834,25.68,-1.84,-43.32,-0.24,-0.55,-0.49,0.03,0.44,0.91,1000
17:00:20.847,25.68,-1.84,-43.33,-0.18,-0.12,-0.61,0.03,0.44,0.92,1000
17:00:20.858,25.68,-1.84,-43.34,-0.49,-0.37,-0.61,0.03,0.44,0.93,1000
17:00:20.868,25.67,-1.83,-43.34,-0.18,-0.12,-0.55,0.03,0.44,0.93,1000
17:00:20.879,25.67,-1.84,-43.35,0.06,-0.24,-0.61,0.02,0.44,0.93,1000
17:00:20.889,25.67,-1.83,-43.35,-0.06,-0.43,-0.61,0.03,0.44,0.93,1000
17:00:20.900,25.67,-1.83,-43.36,-0.3,-0.18,-0.49,0.03,0.45,0.93,1000
17:00:20.911,25.67,-1.82,-43.37,-0.37,-0.24,-0.49,0.03,0.44,0.93,1000
17:00:20.925,25.67,-1.82,-43.37,-0.06,-0.06,-0.73,0.03,0.44,0.92,1000
17:00:20.934,25.67,-1.81,-43.38,-0.37,-0.12,-0.79,0.03,0.44,0.92,1000
17:00:20.944,25.67,-1.81,-43.38,-0.37,-0.24,-0.37,0.03,0.44,0.93,1000
17:00:20.969,25.66,-1.8,-43.39,-0.18,-0.18,-0.43,0.02,0.44,0.93,1000
17:00:20.969,25.67,-1.81,-43.4,-0.37,-0.3,-0.43,0.03,0.44,0.93,1000
17:00:20.978,25.66,-1.8,-43.4,-0.37,-0.18,-0.61,0.02,0.44,0.93,1000
17:00:20.990,25.66,-1.8,-43.41,-0.12,-0.12,-0.49,0.03,0.44,0.93,1000
17:00:20.999,25.66,-1.79,-43.41,-0.06,-0.18,-0.49,0.02,0.44,0.92,1000
17:00:21.011,25.66,-1.78,-43.42,-0.06,0.18,-0.67,0.03,0.44,0.92,1000
17:00:21.021,25.66,-1.77,-43.42,-0.18,-0.06,-0.55,0.03,0.44,0.93,1000
17:00:21.033,25.65,-1.77,-43.43,0.85,0.85,-0.73,0.02,0.45,0.95,1000
17:00:21.043,25.65,-1.75,-43.44,0.49,0.3,-0.55,0.03,0.45,0.93,1000
17:00:21.055,25.65,-1.75,-43.44,-0.3,-0.18,-0.61,0.03,0.44,0.92,1000
17:00:21.071,25.64,-1.74,-43.45,-0.49,-0.24,-0.61,0.03,0.44,0.93,1000
17:00:21.077,25.65,-1.74,-43.45,0.67,-1.34,-0.3,0.03,0.44,0.96,1000
17:00:21.087,25.65,-1.74,-43.46,-0.43,-0.61,-0.79,0.03,0.44,0.92,1000
17:00:21.098,25.65,-1.74,-43.47,-0.37,-0.43,-0.79,0.03,0.44,0.93,1000
17:00:21.110,25.65,-1.75,-43.48,0.06,-0.37,-1.04,0.02,0.44,0.92,1000
17:00:21.121,25.66,-1.76,-43.48,-0.3,-0.55,-0.61,0.02,0.44,0.92,1000
17:00:21.131,25.66,-1.75,-43.49,-0.3,0.24,-0.67,0.03,0.44,0.93,1000
17:00:21.142,25.65,-1.75,-43.5,-0.55,-0.61,-0.49,0.03,0.45,0.93,1000
17:00:21.154,25.66,-1.74,-43.51,-0.85,-0.06,-1.16,-0.01,0.45,0.9,1000
17:00:21.168,25.7,-1.68,-43.51,-1.4,-0.79,0.0,0.02,0.43,0.96,1000
17:00:21.175,25.63,-1.64,-43.51,-2.01,-0.67,0.98,0.04,0.39,0.88,1000
17:00:21.186,25.67,-1.68,-43.51,-1.22,-1.89,0.73,0.06,0.46,0.99,1000
17:00:21.198,25.8,-1.81,-43.5,-9.45,12.74,-1.22,0.01,0.66,1.21,1000
17:00:21.212,25.68,-1.84,-43.5,-5.3,2.26,-0.73,0.1,0.45,0.9,1000
17:00:21.220,25.62,-1.86,-43.5,3.11,-0.91,1.46,-0.03,0.32,0.94,1000
17:00:21.231,25.51,-1.81,-43.49,1.59,-0.49,-0.91,0.15,0.52,0.87,1000
17:00:21.241,25.59,-1.88,-43.5,-4.39,-0.37,0.43,0.03,0.55,0.92,1000
17:00:21.252,25.78,-1.95,-43.48,-1.77,1.46,3.66,0.11,0.48,0.81,1000
17:00:21.265,25.79,-1.92,-43.43,-5.55,0.43,5.0,-0.05,0.32,0.91,1000
17:00:21.278,25.71,-1.81,-43.37,-7.13,8.72,7.32,-0.03,0.61,0.84,1000
17:00:21.285,25.99,-1.49,-43.27,-17.93,12.93,13.29,-0.08,0.57,0.81,1000
17:00:21.298,26.22,-1.07,-43.07,-22.8,10.24,19.88,0.0,0.48,0.98,1000
17:00:21.308,26.3,-0.83,-42.85,-34.15,4.88,20.12,0.02,0.61,1.06,1000
17:00:21.318,26.27,-0.81,-42.65,-52.56,-0.3,13.66,0.04,0.7,1.16,1000
17:00:21.329,26.17,-1.01,-42.57,-73.05,-5.49,-0.98,0.14,0.71,1.11,1000
17:00:21.340,26.1,-1.33,-42.68,-94.33,-1.95,-21.52,0.14,0.79,1.06,1000
17:00:21.352,26.02,-1.79,-43.07,-127.38,-4.76,-47.62,0.08,0.76,1.01,1000
17:00:21.362,25.64,-2.18,-43.62,-133.35,13.41,-63.6,0.23,0.52,1.01,1000
17:00:21.381,24.45,-2.58,-44.48,-143.11,30.0,-79.27,0.2,0.32,0.95,1000
17:00:21.385,22.84,-2.9,-45.29,-138.17,42.74,-81.04,0.09,-0.08,0.8,1000
17:00:21.398,20.38,-3.08,-46.2,-105.67,72.44,-68.48,0.3,0.21,0.93,1000
17:00:21.408,18.35,-3.24,-46.93,-65.67,95.06,-61.22,-0.0,0.14,1.05,1000
17:00:21.418,16.34,-3.22,-47.55,-34.02,106.46,-49.39,0.53,0.52,1.62,1000
17:00:21.428,14.78,-3.68,-48.03,-53.41,118.96,-45.0,0.43,-0.27,0.81,1000
17:00:21.446,13.32,-3.75,-48.47,-60.55,146.46,-39.15,-0.17,0.0,1.15,1000
17:00:21.456,13.08,-2.22,-48.92,-89.82,150.0,-46.89,-0.43,0.78,1.27,1000
17:00:21.461,13.31,0.29,-49.51,-131.52,134.33,-63.6,-0.67,0.58,1.11,1000
17:00:21.477,12.83,3.39,-50.25,-150.55,112.44,-69.51,-0.82,0.01,0.82,1000
17:00:21.484,11.3,7.14,-51.03,-139.88,70.73,-59.45,-0.59,-0.18,0.43,1000
17:00:21.496,9.03,11.37,-51.62,-116.28,32.74,-42.38,-0.54,-0.04,0.49,1000
17:00:21.509,7.1,14.89,-51.97,-104.09,0.3,-25.24,-0.62,0.12,0.94,1000
17:00:21.520,5.9,16.77,-52.16,-108.35,-21.04,-8.72,-0.67,0.34,1.08,1000
17:00:21.530,5.38,17.95,-52.3,-117.5,-52.2,-13.23,-0.31,0.52,1.12,1000
17:00:21.544,5.1,18.21,-52.47,-155.67,-64.7,-19.09,-0.12,0.49,0.74,1000
17:00:21.550,4.25,17.57,-52.7,-186.4,-93.9,-21.34,-0.14,0.07,0.78,1000
17:00:21.560,4.16,15.56,-52.95,-204.63,-122.62,-30.24,0.03,0.33,0.81,1000
17:00:21.576,3.22,13.53,-53.33,-223.29,-124.21,-39.94,-0.23,0.11,1.01,1000
17:00:21.588,0.84,12.51,-53.84,-215.55,-105.49,-44.02,-0.8,-0.11,0.77,1000
17:00:21.594,-1.85,12.85,-54.25,-177.5,-91.04,-24.21,-0.17,-0.61,1.21,1000
17:00:21.611,-5.7,11.87,-54.65,-129.45,-89.27,-35.37,0.57,-1.42,0.57,1000
17:00:21.615,-10.24,9.73,-55.0,-57.26,-42.68,-31.65,0.24,-1.12,0.93,1000
17:00:21.627,-14.46,7.05,-55.33,-44.02,-54.88,-20.73,0.38,-0.82,1.08,1000
17:00:21.644,-17.23,4.55,-55.5,-34.63,-39.57,-12.38,0.21,-0.51,1.38,1000
17:00:21.648,-18.8,2.7,-55.61,-25.37,-25.61,-5.79,0.21,-0.44,0.91,1000
17:00:21.660,-19.15,0.86,-55.62,-11.28,-13.78,3.9,0.48,0.18,1.37,1000
17:00:21.670,-18.52,-0.65,-55.54,0.3,-2.38,13.35,0.0,-0.38,1.22,1000
17:00:21.687,-18.02,-1.26,-55.36,-17.93,0.12,17.93,0.03,-0.45,0.79,1000
17:00:21.693,-17.35,-1.08,-55.19,-36.95,-13.23,8.9,-0.12,0.0,1.03,1000
17:00:21.703,-17.04,-0.91,-55.18,-47.13,-39.57,-10.85,-0.01,-0.41,1.13,1000
17:00:21.714,-17.32,-0.62,-55.34,-37.87,-49.82,-22.62,0.03,-0.43,0.76,1000
17:00:21.725,-17.94,-0.42,-55.6,-18.05,-36.46,-26.04,-0.05,-0.53,0.99,1000
17:00:21.736,-18.51,-0.44,-55.87,-1.95,-31.1,-21.71,-0.09,-0.3,0.94,1000
17:00:21.750,-18.91,-0.56,-56.0,10.79,-17.44,2.99,0.1,-0.37,0.96,1000
17:00:21.762,-18.91,-1.03,-55.84,19.63,-4.33,26.71,0.14,-0.28,1.0,1000
17:00:21.771,-18.65,-1.38,-55.5,27.38,4.33,42.93,-0.1,-0.24,0.85,1000
17:00:21.782,-18.36,-1.44,-54.98,25.55,7.8,54.63,0.17,-0.67,0.35,1000
17:00:21.796,-18.26,-1.39,-54.23,49.09,27.8,69.57,-0.01,0.02,0.91,1000
17:00:21.803,-18.31,-1.49,-53.49,48.66,32.13,79.63,-0.21,-0.01,0.87,1000
17:00:21.814,-17.99,-1.26,-52.49,21.46,26.89,88.72,-0.01,-0.05,0.99,1000
17:00:21.826,-16.83,-0.81,-51.58,-3.41,22.99,92.01,-0.09,-0.07,1.1,1000
17:00:21.836,-15.04,-0.17,-50.58,-35.24,10.0,88.78,-0.14,0.35,1.12,1000
17:00:21.847,-12.96,0.53,-49.56,-69.94,-11.1,79.7,-0.25,0.25,1.18,1000
17:00:21.857,-11.44,1.08,-48.81,-85.06,-19.51,68.84,-0.04,-0.13,1.04,1000
17:00:21.871,-11.24,1.31,-48.12,-87.07,-26.1,55.3,-0.07,-0.31,1.09,1000
17:00:21.879,-11.76,1.3,-47.57,-82.74,-22.38,42.56,0.03,-0.28,0.91,1000
17:00:21.890,-12.85,1.23,-47.16,-76.83,-17.68,31.28,-0.04,-0.43,0.98,1000
17:00:21.902,-14.41,1.12,-46.84,-62.93,-10.67,21.95,0.0,-0.46,0.89,1000
17:00:21.913,-16.16,1.07,-46.63,-47.07,-2.74,16.71,-0.01,-0.58,0.86,1000
17:00:21.924,-17.77,1.06,-46.47,-35.91,2.56,14.88,0.01,-0.5,0.88,1000
17:00:21.936,-18.97,1.06,-46.3,-25.73,8.54,16.22,-0.02,-0.39,0.94,1000
17:00:21.948,-19.71,1.19,-46.1,-25.73,11.4,15.85,-0.04,-0.26,0.98,1000
17:00:21.956,-19.9,1.43,-45.95,-34.76,14.7,11.1,-0.07,-0.22,1.02,1000
17:00:21.967,-19.87,1.77,-45.86,-42.8,10.73,5.55,-0.08,-0.32,0.98,1000
17:00:21.981,-20.07,2.12,-45.83,-47.07,7.2,-0.43,-0.12,-0.36,0.97,1000
17:00:21.996,-20.57,2.49,-45.86,-45.49,1.34,-5.98,-0.05,-0.56,0.85,1000
17:00:22.001,-21.51,2.62,-45.97,-42.01,2.56,-14.27,-0.01,-0.37,0.87,1000
17:00:22.011,-22.22,2.67,-46.15,-38.11,11.71,-20.98,-0.08,-0.42,0.97,1000
17:00:22.022,-22.73,2.88,-46.39,-34.57,21.77,-24.57,-0.04,-0.38,0.99,1000
17:00:22.035,-23.02,3.09,-46.68,-32.8,24.94,-26.71,-0.03,-0.37,0.92,1000
17:00:22.049,-23.35,3.22,-46.96,-38.6,28.6,-23.17,0.09,-0.46,1.01,1000
17:00:22.057,-23.79,3.4,-47.2,-36.77,37.87,-20.37,-0.03,-0.41,0.92,1000
17:00:22.069,-24.27,3.65,-47.44,-24.51,51.46,-19.51,-0.02,-0.57,0.84,1000
17:00:22.079,-24.94,4.05,-47.65,-8.54,64.57,-20.0,0.0,-0.54,0.9,1000
17:00:22.089,-25.52,4.27,-47.88,-2.01,70.98,-28.78,0.01,-0.43,0.96,1000
17:00:22.101,-25.51,4.6,-48.28,-9.88,74.88,-47.8,0.01,-0.28,1.1,1000
17:00:22.112,-25.08,4.94,-48.92,-21.59,79.57,-73.48,-0.02,-0.3,1.18,1000
17:00:22.123,-24.74,5.59,-49.91,-20.06,80.18,-91.34,-0.27,-0.66,1.42,1000
17:00:22.132,-24.65,6.42,-50.84,-0.61,70.12,-95.79,-0.38,-0.74,1.5,1000
17:00:22.146,-24.63,7.5,-52.01,21.71,56.59,-97.87,-0.44,-0.83,1.26,1000
17:00:22.154,-24.51,8.44,-52.99,30.91,37.87,-99.76,-0.34,-0.45,1.13,1000
17:00:22.174,-24.05,9.35,-54.18,36.34,18.35,-96.65,-0.36,-0.41,0.97,1000
17:00:22.176,-23.6,10.04,-55.12,42.8,3.29,-91.95,-0.28,-0.5,0.93,1000
17:00:22.200,-23.25,10.39,-56.19,56.28,-18.11,-86.04,-0.2,-0.5,0.92,1000
17:00:22.205,-23.03,10.38,-57.04,65.91,-35.67,-82.87,-0.16,-0.47,0.92,1000
17:00:22.210,-22.54,9.96,-58.02,73.11,-54.33,-79.63,-0.13,-0.42,1.09,1000
17:00:22.222,-21.93,9.23,-58.79,79.7,-64.45,-73.29,-0.08,-0.39,1.12,1000
17:00:22.232,-20.9,8.07,-59.6,89.7,-71.95,-60.73,-0.09,-0.4,1.17,1000
17:00:22.244,-19.89,7.04,-60.16,99.33,-76.71,-49.39,-0.1,-0.35,1.11,1000
17:00:22.258,-18.54,5.88,-60.69,103.66,-81.16,-38.96,-0.06,-0.29,1.08,1000
17:00:22.266,-17.32,4.88,-61.05,99.82,-82.13,-34.27,-0.01,-0.21,1.09,1000
17:00:22.275,-15.92,3.76,-61.42,90.37,-80.37,-33.66,0.02,-0.14,1.1,1000
17:00:22.291,-14.32,2.49,-61.84,82.32,-71.89,-36.59,0.08,-0.15,1.12,1000
17:00:22.303,-13.03,1.48,-62.23,77.68,-61.46,-41.04,0.04,-0.15,1.23,1000
17:00:22.308,-11.63,0.58,-62.71,70.18,-46.83,-47.07,0.07,-0.09,1.29,1000
17:00:22.319,-10.23,-0.28,-63.3,59.09,-35.12,-51.83,0.15,-0.11,1.29,1000
17:00:22.331,-9.08,-1.14,-63.88,53.72,-28.66,-51.77,0.19,-0.11,1.22,1000
17:00:22.341,-8.15,-1.96,-64.42,52.5,-27.44,-46.34,0.17,-0.12,1.23,1000
17:00:22.354,-7.3,-2.77,-64.85,54.63,-27.99,-38.41,0.15,-0.1,1.21,1000
17:00:22.365,-6.41,-3.47,-65.23,60.24,-29.57,-28.35,0.15,-0.05,1.21,1000
17:00:22.376,-5.44,-4.16,-65.5,64.21,-30.37,-20.55,0.18,-0.03,1.16,1000
17:00:22.386,-4.37,-4.95,-65.71,66.22,-30.61,-14.15,0.23,-0.04,1.12,1000
17:00:22.399,-3.48,-5.83,-65.83,65.3,-30.49,-10.49,0.25,-0.05,1.09,1000
17:00:22.407,-2.64,-6.75,-65.94,61.65,-29.45,-8.48,0.23,-0.03,1.15,1000
17:00:22.418,-1.84,-7.53,-66.03,51.95,-28.17,-5.67,0.22,-0.01,1.19,1000
17:00:22.429,-1.27,-8.09,-66.06,41.46,-27.26,-1.34,0.18,-0.01,1.21,1000
17:00:22.441,-0.78,-8.55,-66.05,31.22,-27.38,5.67,0.16,0.0,1.15,1000
17:00:22.453,-0.36,-8.93,-65.93,24.51,-27.93,15.79,0.18,0.0,1.12,1000
17:00:22.463,-0.01,-9.29,-65.69,23.9,-27.38,27.56,0.21,0.02,1.11,1000
17:00:22.473,0.35,-9.66,-65.37,27.8,-25.67,38.41,0.23,0.05,1.12,1000
17:00:22.490,0.9,-10.14,-64.9,34.57,-22.26,48.54,0.26,0.07,1.12,1000
17:00:22.498,1.51,-10.59,-64.33,42.2,-17.13,55.73,0.26,0.07,1.15,1000
17:00:22.509,2.15,-10.96,-63.7,46.52,-12.8,58.96,0.25,0.03,1.24,1000
17:00:22.517,2.66,-11.17,-63.05,47.2,-12.62,58.78,0.2,-0.02,1.24,1000
17:00:22.530,3.02,-11.29,-62.41,45.98,-18.41,56.4,0.19,0.02,1.14,1000
17:00:22.539,3.34,-11.47,-61.8,44.02,-27.87,53.6,0.23,0.06,1.11,1000
17:00:22.550,3.75,-11.81,-61.23,43.9,-36.16,51.34,0.23,0.09,1.15,1000
17:00:22.563,4.28,-12.2,-60.67,46.59,-40.98,51.34,0.25,0.13,1.19,1000
17:00:22.573,4.92,-12.66,-60.08,52.87,-42.93,55.24,0.28,0.13,1.18,1000
17:00:22.583,5.64,-13.14,-59.45,61.16,-42.32,60.85,0.25,0.14,1.16,1000
17:00:22.596,6.48,-13.52,-58.69,68.78,-38.9,65.67,0.19,0.1,1.16,1000
17:00:22.612,7.09,-13.63,-58.02,72.26,-36.1,68.41,0.19,0.09,1.1,1000
17:00:22.616,7.76,-13.8,-57.27,73.11,-34.39,69.02,0.21,0.13,1.03,1000
17:00:22.627,8.42,-13.9,-56.51,72.56,-33.6,68.48,0.2,0.15,0.98,1000
17:00:22.643,9.1,-13.94,-55.76,69.76,-32.68,68.17,0.18,0.14,1.07,1000
17:00:22.656,9.71,-13.97,-55.01,64.63,-29.39,68.29,0.21,0.16,1.15,1000
17:00:22.661,10.3,-14.0,-54.19,56.28,-25.37,68.72,0.24,0.22,1.2,1000
17:00:22.678,10.72,-13.92,-53.49,49.94,-23.96,69.76,0.22,0.23,1.18,1000
17:00:22.694,11.28,-13.84,-52.64,46.95,-26.1,72.74,0.18,0.25,1.14,1000
17:00:22.694,11.8,-13.68,-51.82,50.73,-31.71,77.38,0.15,0.22,1.09,1000
17:00:22.716,12.28,-13.54,-51.02,56.52,-37.93,83.23,0.13,0.21,1.07,1000
17:00:22.716,12.8,-13.4,-50.08,61.1,-42.8,87.8,0.17,0.22,1.02,1000
17:00:22.727,13.43,-13.49,-49.01,62.56,-43.48,90.37,0.24,0.24,0.99,1000
17:00:22.738,14.07,-13.73,-48.01,61.59,-40.91,92.2,0.25,0.29,0.99,1000
17:00:22.749,14.81,-14.02,-46.99,62.07,-36.83,94.15,0.22,0.3,1.01,1000
17:00:22.759,15.5,-14.13,-46.04,64.21,-33.23,96.83,0.17,0.27,1.02,1000
17:00:22.774,16.2,-14.08,-44.85,68.17,-27.13,101.1,0.16,0.21,1.06,1000
17:00:22.781,16.55,-13.88,-43.82,70.3,-20.06,105.61,0.18,0.18,1.08,1000
17:00:22.792,16.78,-13.66,-42.64,70.67,-9.82,109.33,0.22,0.15,1.1,1000
17:00:22.806,16.77,-13.4,-41.32,64.63,1.46,110.37,0.26,0.16,1.14,1000
17:00:22.814,16.52,-13.19,-40.22,58.05,11.04,108.84,0.27,0.22,1.17,1000
17:00:22.825,16.54,-12.84,-38.93,54.02,19.27,105.37,0.25,0.22,1.17,1000
17:00:22.836,16.56,-12.55,-37.9,54.27,19.94,101.4,0.25,0.28,1.0,1000
17:00:22.848,16.67,-12.21,-36.68,51.83,15.24,99.33,0.13,0.25,1.07,1000
17:00:22.859,16.58,-11.55,-35.59,59.21,3.29,97.26,0.05,0.36,0.85,1000
17:00:22.870,16.49,-10.72,-34.59,41.4,16.22,106.28,0.01,-0.11,0.27,1000
17:00:22.882,16.26,-9.84,-33.41,68.17,3.6,112.26,0.12,0.24,0.77,1000
17:00:22.891,16.12,-9.38,-32.15,74.09,-4.63,117.32,0.27,-0.0,1.01,1000
17:00:22.908,15.48,-8.83,-30.89,76.95,-1.46,114.02,0.17,0.11,0.98,1000
17:00:22.915,15.14,-8.45,-29.68,76.83,-2.99,106.04,0.15,0.2,0.87,1000
17:00:22.928,14.82,-8.2,-28.45,47.07,-3.6,97.2,0.12,0.13,1.02,1000
17:00:22.935,14.49,-8.02,-27.5,23.11,-10.12,93.9,0.1,0.21,1.04,1000
17:00:22.946,14.27,-7.91,-26.35,9.15,-13.6,97.93,0.19,0.23,1.02,1000
17:00:22.959,14.0,-8.09,-25.34,10.06,-12.32,107.5,0.24,0.16,0.92,1000
17:00:22.969,13.53,-8.63,-23.98,16.04,-11.28,120.43,0.26,0.06,0.85,1000
17:00:22.981,13.08,-9.16,-22.74,23.41,-8.96,128.35,0.19,0.04,0.81,1000
17:00:22.991,12.53,-9.62,-21.17,26.04,-7.32,131.4,0.11,0.02,0.85,1000
17:00:23.001,11.88,-9.74,-19.87,29.02,-7.68,128.78,0.12,0.02,0.88,1000
17:00:23.018,11.04,-9.64,-18.49,23.54,-6.04,121.1,0.13,0.02,0.84,1000
17:00:23.023,10.26,-9.59,-17.2,13.05,-2.44,110.3,0.16,0.03,0.85,1000
17:00:23.036,9.41,-9.62,-16.05,2.32,-0.61,98.29,0.17,0.07,0.91,1000
17:00:23.047,8.69,-9.74,-15.01,-1.77,1.65,91.34,0.24,0.1,0.88,1000
17:00:23.056,8.21,-10.0,-14.02,3.66,5.98,89.21,0.28,0.1,0.89,1000
17:00:23.067,7.83,-10.45,-13.03,16.4,8.17,91.34,0.26,0.06,0.85,1000
17:00:23.080,7.55,-10.9,-11.92,33.9,9.27,94.27,0.2,0.05,0.86,1000
17:00:23.090,7.44,-11.07,-10.97,47.01,7.93,95.18,0.17,0.06,0.82,1000
17:00:23.101,7.54,-11.14,-9.83,57.68,3.54,94.39,0.17,0.07,0.81,1000
17:00:23.120,7.68,-11.2,-8.89,61.22,-0.18,92.74,0.16,0.07,0.82,1000
17:00:23.123,7.92,-11.24,-7.8,59.7,-3.41,88.54,0.16,0.06,0.87,1000
17:00:23.136,8.0,-11.24,-6.94,55.0,-6.1,84.09,0.17,0.08,0.9,1000
17:00:23.144,8.1,-11.23,-6.04,47.2,-8.96,79.45,0.18,0.11,0.94,1000
17:00:23.158,8.18,-11.3,-5.17,38.78,-11.59,77.87,0.23,0.11,0.93,1000
17:00:23.170,8.16,-11.61,-4.29,34.45,-13.72,83.41,0.29,0.07,0.92,1000
17:00:23.177,8.02,-12.18,-3.33,35.24,-14.88,93.17,0.32,0.06,0.89,1000
17:00:23.188,7.78,-12.98,-2.25,35.79,-15.91,103.54,0.29,0.06,0.87,1000
17:00:23.200,7.58,-13.61,-1.08,31.95,-16.71,109.15,0.23,0.06,0.87,1000
17:00:23.223,7.34,-14.01,0.24,22.01,-17.56,109.88,0.19,0.07,0.89,1000
17:00:23.224,7.01,-14.11,1.33,13.96,-16.71,109.39,0.19,0.08,0.91,1000
17:00:23.232,6.71,-14.15,2.54,7.93,-14.02,110.49,0.23,0.06,0.93,1000
17:00:23.246,6.26,-14.24,3.88,3.66,-7.74,113.05,0.29,0.04,0.95,1000
17:00:23.254,5.8,-14.43,5.02,1.89,-1.46,114.76,0.33,0.04,0.93,1000
17:00:23.266,5.4,-14.64,6.28,0.12,3.35,115.3,0.31,0.07,0.93,1000
17:00:23.276,4.99,-14.9,7.55,-0.12,8.9,115.12,0.31,0.05,0.91,1000
17:00:23.287,4.52,-15.23,8.82,0.55,11.71,114.82,0.32,0.02,0.9,1000
17:00:23.298,4.04,-15.47,10.08,3.41,13.35,113.29,0.26,0.05,0.94,1000
17:00:23.309,3.69,-15.55,11.31,-0.85,7.32,108.96,0.23,0.07,0.92,1000
17:00:23.321,3.5,-15.52,12.47,-3.11,-1.16,102.44,0.24,0.08,0.89,1000
17:00:23.331,3.4,-15.54,13.67,-0.67,-10.98,96.16,0.25,0.05,0.89,1000
17:00:23.342,3.3,-15.64,14.61,3.84,-16.59,91.83,0.26,0.02,0.88,1000
17:00:23.354,3.06,-15.9,15.6,11.71,-20.85,87.8,0.27,-0.02,0.87,1000
17:00:23.364,2.72,-16.2,16.54,19.82,-22.2,82.74,0.28,-0.07,0.87,1000
17:00:23.376,2.19,-16.57,17.51,26.28,-21.65,76.46,0.29,-0.11,0.87,1000
17:00:23.387,1.5,-16.88,18.24,28.54,-20.91,68.6,0.27,-0.13,0.86,1000
17:00:23.402,0.76,-17.17,18.94,26.83,-20.12,57.38,0.27,-0.11,0.84,1000
17:00:23.409,0.13,-17.46,19.51,21.65,-19.33,46.1,0.29,-0.08,0.83,1000
17:00:23.429,-0.51,-17.83,20.02,17.26,-16.71,37.01,0.29,-0.07,0.81,1000
17:00:23.431,-1.02,-18.12,20.4,16.71,-12.56,31.16,0.27,-0.05,0.81,1000
17:00:23.441,-1.36,-18.27,20.69,18.84,-6.4,28.72,0.28,-0.04,0.81,1000
17:00:23.454,-1.55,-18.38,21.01,22.74,1.77,29.09,0.31,-0.06,0.82,1000
17:00:23.464,-1.77,-18.5,21.38,29.15,13.05,32.32,0.31,-0.08,0.83,1000
17:00:23.474,-1.99,-18.55,21.71,33.29,20.79,33.9,0.32,-0.09,0.82,1000
17:00:23.486,-2.19,-18.5,22.12,35.49,29.15,33.72,0.33,-0.1,0.82,1000
17:00:23.497,-2.48,-18.51,22.45,33.9,33.41,31.4,0.32,-0.09,0.81,1000
17:00:23.511,-2.72,-18.44,22.78,29.09,35.73,28.05,0.34,-0.09,0.83,1000
17:00:23.527,-2.97,-18.39,23.07,20.73,34.94,25.06,0.37,-0.07,0.88,1000
17:00:23.531,-3.21,-18.48,23.35,10.49,30.98,25.18,0.42,-0.04,0.9,1000
17:00:23.541,-3.41,-18.72,23.64,0.0,21.71,27.5,0.4,-0.03,0.88,1000
17:00:23.552,-3.62,-19.07,23.98,-6.34,6.46,29.94,0.35,-0.02,0.86,1000
17:00:23.564,-3.74,-19.52,24.29,-7.87,-9.33,31.83,0.32,-0.03,0.83,1000
17:00:23.577,-3.93,-19.93,24.64,-5.91,-26.71,33.05,0.3,-0.03,0.82,1000
17:00:23.589,-4.08,-20.47,25.04,-0.55,-39.02,33.48,0.33,-0.05,0.82,1000
17:00:23.595,-4.21,-20.99,25.37,3.11,-41.77,31.52,0.36,-0.07,0.82,1000
17:00:23.608,-4.39,-21.65,25.73,4.7,-37.01,26.71,0.39,-0.08,0.85,1000
17:00:23.617,-4.6,-22.21,25.97,4.27,-28.05,22.01,0.4,-0.1,0.88,1000
17:00:23.631,-4.88,-22.65,26.19,3.78,-15.06,18.41,0.43,-0.12,0.89,1000
17:00:23.641,-5.24,-23.08,26.38,3.48,-2.07,15.67,0.44,-0.12,0.87,1000
17:00:23.650,-5.58,-23.39,26.54,3.05,8.48,12.62,0.43,-0.11,0.86,1000
17:00:23.661,-5.87,-23.56,26.68,3.41,15.67,10.55,0.41,-0.07,0.87,1000
17:00:23.672,-5.98,-23.72,26.79,5.61,18.96,10.91,0.43,-0.06,0.86,1000
17:00:23.683,-5.95,-23.87,26.91,9.21,19.94,12.38,0.43,-0.04,0.85,1000
17:00:23.695,-5.83,-24.01,27.06,10.55,18.9,13.48,0.43,-0.04,0.86,1000
17:00:23.708,-5.64,-24.12,27.21,9.82,17.32,14.39,0.43,-0.03,0.9,1000
17:00:23.716,-5.46,-24.17,27.37,9.33,16.95,16.95,0.45,-0.03,0.93,1000
17:00:23.727,-5.3,-24.27,27.6,10.3,15.73,23.17,0.48,-0.07,0.94,1000
17:00:23.738,-5.18,-24.48,27.86,12.87,13.29,28.23,0.48,-0.09,0.93,1000
17:00:23.753,-5.2,-24.69,28.21,14.02,9.76,30.3,0.45,-0.12,0.95,1000
17:00:23.760,-5.33,-24.78,28.5,12.01,7.62,25.06,0.44,-0.15,0.93,1000
17:00:23.772,-5.68,-24.87,28.74,8.84,5.85,12.87,0.45,-0.22,0.93,1000
17:00:23.783,-6.3,-24.93,28.82,10.12,7.01,1.16,0.46,-0.25,0.94,1000
17:00:23.793,-6.97,-25.0,28.8,13.23,8.54,-5.43,0.51,-0.19,0.96,1000
17:00:23.805,-7.38,-25.23,28.73,17.8,10.67,-6.22,0.56,-0.1,0.91,1000
17:00:23.819,-7.44,-25.56,28.68,22.99,11.89,-3.11,0.53,-0.1,0.91,1000
17:00:23.837,-7.38,-25.82,28.67,27.87,11.89,1.34,0.46,-0.11,0.92,1000
17:00:23.839,-7.25,-25.94,28.69,29.63,10.61,3.84,0.42,-0.08,0.91,1000
17:00:23.849,-7.03,-25.95,28.73,25.37,9.57,1.83,0.41,-0.06,0.9,1000
17:00:23.859,-6.77,-25.89,28.73,18.72,9.94,-2.68,0.41,-0.04,0.87,1000
17:00:23.870,-6.53,-25.81,28.69,12.68,12.26,-5.85,0.42,-0.01,0.89,1000
17:00:23.886,-6.24,-25.69,28.61,6.52,16.59,-6.04,0.43,0.01,0.9,1000
17:00:23.895,-5.88,-25.54,28.57,3.66,20.3,-3.17,0.4,0.01,0.92,1000
17:00:23.904,-5.55,-25.26,28.55,2.74,23.78,1.71,0.39,0.03,0.9,1000
17:00:23.914,-5.12,-24.97,28.59,2.68,25.67,6.22,0.39,0.06,0.89,1000
17:00:23.934,-4.5,-24.65,28.69,2.44,26.4,12.13,0.39,0.08,0.9,1000
17:00:23.940,-3.88,-24.27,28.87,0.98,26.1,20.0,0.3,0.07,0.95,1000
17:00:23.947,-3.25,-23.84,29.1,-0.79,26.04,26.4,0.39,0.13,0.94,1000
17:00:23.958,-2.81,-23.49,29.4,-7.87,24.33,28.96,0.37,0.07,0.96,1000
17:00:23.969,-2.6,-23.07,29.71,-14.88,23.35,26.22,0.33,-0.03,0.92,1000
17:00:23.983,-2.66,-22.51,30.0,-16.52,21.46,21.34,0.29,-0.07,0.9,1000
17:00:23.991,-2.91,-22.05,30.2,-16.59,19.39,17.8,0.33,-0.05,0.86,1000
17:00:24.003,-3.25,-21.72,30.39,-14.21,15.73,14.39,0.33,-0.04,0.88,1000
17:00:24.014,-3.5,-21.48,30.53,-8.66,12.01,13.29,0.29,-0.08,0.93,1000
17:00:24.024,-3.75,-21.08,30.71,8.54,-5.18,18.78,0.18,-0.06,1.06,1000
17:00:24.040,-3.72,-20.47,30.93,20.49,-23.48,20.24,0.33,0.03,1.03,1000
17:00:24.048,-3.4,-20.36,31.11,20.85,-30.18,13.6,0.38,0.04,1.01,1000
17:00:24.059,-3.01,-20.54,31.22,16.83,-27.93,3.96,0.36,-0.03,1.06,1000
17:00:24.069,-2.83,-20.73,31.22,14.7,-26.28,-4.88,0.42,-0.07,1.02,1000
17:00:24.081,-2.86,-21.03,31.12,10.91,-21.95,-16.16,0.42,-0.1,0.99,1000
17:00:24.090,-3.07,-21.34,30.89,6.46,-13.9,-26.28,0.38,-0.07,0.97,1000
17:00:24.108,-3.16,-21.59,30.59,1.1,-5.06,-28.9,0.47,0.05,0.96,1000
17:00:24.114,-2.97,-21.95,30.27,-1.59,4.02,-27.07,0.46,0.05,0.96,1000
17:00:24.124,-2.73,-22.11,30.02,1.77,7.44,-16.1,0.31,-0.0,0.99,1000
17:00:24.145,-2.54,-21.85,29.93,6.95,5.91,2.74,0.21,0.03,0.92,1000
17:00:24.146,-2.26,-21.4,30.05,8.35,2.74,19.45,0.23,0.04,0.87,1000
17:00:24.156,-1.82,-20.74,30.32,5.12,1.89,29.51,0.23,0.05,0.86,1000
17:00:24.171,-1.51,-20.22,30.64,0.79,2.87,34.39,0.26,0.02,0.87,1000
17:00:24.178,-1.38,-19.84,31.02,-2.01,6.52,36.59,0.29,0.0,0.88,1000
17:00:24.189,-1.39,-19.57,31.43,-4.94,12.01,37.68,0.31,-0.01,0.9,1000
17:00:24.209,-1.53,-19.33,31.85,-7.01,17.32,37.13,0.31,-0.04,0.9,1000
17:00:24.211,-1.77,-19.08,32.25,-9.51,21.71,34.7,0.31,-0.06,0.88,1000
17:00:24.226,-2.09,-18.8,32.61,-10.85,25.18,30.73,0.28,-0.03,0.91,1000
17:00:24.235,-2.38,-18.49,32.93,-10.73,26.46,27.07,0.28,-0.04,0.94,1000
17:00:24.244,-2.66,-18.18,33.21,-9.33,23.29,23.96,0.31,-0.03,0.99,1000
17:00:24.255,-2.84,-17.88,33.47,-4.21,16.83,21.95,0.3,-0.06,1.07,1000
17:00:24.266,-2.97,-17.69,33.7,-0.24,12.74,20.79,0.36,-0.05,1.03,1000
17:00:24.277,-3.19,-17.66,33.92,-3.54,18.23,19.21,0.38,-0.1,0.96,1000
17:00:24.288,-3.53,-17.66,34.13,-8.54,27.44,17.87,0.36,-0.13,0.94,1000
17:00:24.299,-4.03,-17.63,34.32,-12.87,34.33,16.28,0.35,-0.13,0.93,1000
17:00:24.310,-4.61,-17.51,34.51,-15.73,34.82,15.37,0.33,-0.12,0.9,1000
17:00:24.322,-5.1,-17.44,34.66,-17.26,30.24,14.82,0.3,-0.09,0.91,1000
17:00:24.334,-5.57,-17.27,34.83,-18.96,23.35,13.35,0.26,-0.08,0.94,1000
17:00:24.344,-5.86,-17.03,34.96,-21.16,17.56,11.28,0.25,-0.07,0.94,1000
17:00:24.354,-6.18,-16.73,35.07,-23.54,13.29,8.05,0.23,-0.07,0.95,1000
17:00:24.367,-6.41,-16.47,35.14,-23.9,12.26,5.37,0.23,-0.07,0.94,1000
17:00:24.378,-6.57,-16.14,35.19,-22.56,13.05,2.5,0.24,-0.07,0.92,1000
17:00:24.387,-6.74,-15.9,35.2,-18.84,14.21,-0.24,0.25,-0.05,0.92,1000
17:00:24.398,-6.65,-15.7,35.19,-14.21,15.98,-2.2,0.28,-0.03,0.94,1000
17:00:24.411,-6.41,-15.63,35.17,-9.39,17.8,-1.52,0.32,-0.01,0.94,1000
17:00:24.421,-6.19,-15.66,35.17,-4.7,19.02,1.16,0.31,-0.02,0.97,1000
17:00:24.432,-5.87,-15.69,35.19,-1.59,19.88,3.6,0.28,-0.02,0.96,1000
17:00:24.444,-5.63,-15.58,35.24,-1.95,21.16,4.51,0.24,-0.02,0.93,1000
17:00:24.455,-5.32,-15.33,35.3,-5.91,20.91,8.05,0.16,0.04,0.9,1000
17:00:24.464,-4.94,-14.82,35.41,-8.9,16.4,11.46,0.15,-0.04,0.91,1000
17:00:24.475,-4.75,-14.28,35.54,-9.7,7.26,11.95,0.19,-0.05,0.94,1000
17:00:24.489,-4.79,-13.89,35.65,-8.54,-1.34,7.32,0.17,-0.11,0.98,1000
17:00:24.498,-4.97,-13.7,35.71,-7.56,-9.27,2.2,0.21,-0.11,1.03,1000
17:00:24.509,-5.21,-13.61,35.71,-7.8,-14.15,-2.32,0.24,-0.11,1.06,1000
17:00:24.519,-5.45,-13.62,35.67,-6.22,-16.59,-4.21,0.26,-0.12,1.08,1000
17:00:24.530,-5.63,-13.74,35.63,-2.32,-18.84,-2.93,0.29,-0.09,1.07,1000
17:00:24.544,-5.67,-14.07,35.62,2.07,-19.76,1.89,0.36,-0.04,1.05,1000
17:00:24.554,-5.47,-14.68,35.68,3.54,-16.46,7.74,0.44,-0.0,1.04,1000
17:00:24.567,-5.14,-15.45,35.77,3.84,-12.44,10.61,0.44,-0.03,1.06,1000
17:00:24.576,-4.92,-16.15,35.88,5.55,-7.8,9.27,0.41,-0.08,1.05,1000
17:00:24.596,-4.81,-16.72,35.97,9.21,-5.91,3.54,0.31,-0.12,1.04,1000
17:00:24.596,-4.81,-16.95,35.97,12.38,-5.43,-4.33,0.27,-0.13,1.0,1000
17:00:24.613,-4.88,-16.99,35.88,15.24,-5.55,-14.27,0.24,-0.09,0.99,1000
17:00:24.628,-4.84,-16.88,35.67,17.87,-3.11,-23.96,0.25,-0.06,0.99,1000
17:00:24.629,-4.63,-16.7,35.34,21.22,1.77,-31.89,0.3,-0.03,0.99,1000
17:00:24.644,-4.32,-16.62,35.0,24.82,8.23,-36.95,0.31,-0.04,1.0,1000
17:00:24.651,-3.99,-16.56,34.57,30.18,14.27,-42.07,0.32,-0.03,1.02,1000
17:00:24.662,-3.54,-16.48,34.09,35.0,18.54,-45.18,0.31,-0.04,1.0,1000
17:00:24.673,-3.08,-16.35,33.58,39.15,21.77,-46.34,0.28,-0.02,0.99,1000
17:00:24.684,-2.51,-16.13,33.03,43.29,21.04,-46.52,0.27,0.01,1.02,1000
17:00:24.695,-1.94,-15.91,32.56,46.4,17.93,-46.71,0.27,-0.0,1.02,1000
17:00:24.762,-1.37,-15.67,32.04,48.35,16.34,-47.07,0.25,-0.02,1.0,1000
17:00:24.765,-0.9,-15.38,31.53,48.23,17.32,-47.68,0.23,-0.03,1.0,1000
17:00:24.765,-0.49,-15.05,30.99,46.4,20.43,-49.21,0.24,0.0,1.04,1000
17:00:24.765,-0.04,-14.67,30.39,40.43,24.33,-51.83,0.28,0.04,1.02,1000
17:00:24.765,0.38,-14.46,29.86,32.2,28.05,-53.23,0.28,0.07,1.0,1000
17:00:24.765,0.92,-14.28,29.21,23.29,26.77,-54.7,0.42,0.2,1.01,1000
17:00:24.775,1.38,-14.23,28.68,13.17,29.57,-51.28,0.32,0.14,1.03,1000
17:00:24.784,1.81,-14.16,28.11,5.43,29.88,-42.5,0.27,0.08,1.03,1000
17:00:24.798,2.08,-14.08,27.69,0.0,32.13,-32.44,0.24,0.02,1.02,1000
17:00:24.805,2.13,-13.86,27.38,-5.98,33.11,-23.29,0.28,0.07,0.98,1000
17:00:24.816,2.16,-13.64,27.17,-11.34,38.17,-16.83,0.24,0.09,0.97,1000
17:00:24.827,2.15,-13.25,27.02,-16.83,40.3,-8.96,0.19,0.13,0.96,1000
17:00:24.839,2.17,-12.7,26.95,-23.41,41.16,-4.63,0.11,0.11,1.0,1000
17:00:24.866,2.16,-11.89,26.9,-32.56,40.43,-4.63,0.13,0.12,1.05,1000
17:00:24.866,2.07,-11.17,26.84,-39.33,38.48,-6.34,0.17,0.1,1.06,1000
17:00:24.871,1.87,-10.61,26.77,-40.3,33.66,-9.15,0.16,0.02,1.06,1000
17:00:24.882,1.44,-10.09,26.64,-36.46,27.2,-12.87,0.12,-0.01,1.07,1000
17:00:24.893,1.06,-9.57,26.51,-32.56,21.89,-12.8,0.09,0.04,1.06,1000
17:00:24.906,0.74,-9.13,26.37,-33.29,18.35,-11.71,0.18,0.08,1.02,1000
17:00:24.919,0.54,-8.86,26.25,-37.5,14.94,-10.98,0.19,0.06,1.05,1000
17:00:24.930,0.27,-8.79,26.12,-42.56,11.04,-11.71,0.22,0.01,1.04,1000
17:00:24.937,-0.13,-8.88,25.99,-46.71,7.56,-12.32,0.18,-0.01,1.1,1000
17:00:24.948,-0.61,-8.97,25.86,-47.8,1.89,-11.65,0.2,-0.02,1.1,1000
17:00:24.962,-1.1,-9.1,25.74,-49.76,-2.26,-10.67,0.19,-0.01,1.1,1000
17:00:24.970,-1.57,-9.24,25.62,-50.55,-4.02,-9.57,0.19,-0.0,1.08,1000
17:00:24.981,-2.02,-9.38,25.53,-51.89,-5.3,-7.68,0.19,-0.01,1.07,1000
17:00:24.996,-2.51,-9.55,25.45,-52.44,-5.79,-5.61,0.2,0.0,1.05,1000
17:00:25.003,-2.83,-9.72,25.39,-51.65,-6.4,-4.63,0.21,-0.01,1.05,1000
17:00:25.014,-3.14,-9.94,25.35,-48.9,-6.4,-4.09,0.2,-0.04,1.03,1000
17:00:25.025,-3.52,-10.12,25.3,-43.66,-5.85,-3.96,0.2,-0.05,1.03,1000
17:00:25.038,-3.94,-10.27,25.25,-33.29,-2.74,-4.94,0.2,-0.08,1.02,1000
17:00:25.047,-4.28,-10.39,25.19,-25.55,-2.56,-6.59,0.2,-0.12,1.02,1000
17:00:25.061,-4.63,-10.5,25.11,-18.05,-1.22,-8.78,0.21,-0.11,1.04,1000
17:00:25.071,-4.93,-10.58,25.01,-13.35,-2.62,-10.43,0.18,-0.1,1.03,1000
17:00:25.080,-5.15,-10.62,24.89,-10.61,-2.44,-10.98,0.18,-0.08,1.01,1000
17:00:25.091,-5.24,-10.63,24.76,-9.02,-4.39,-12.01,0.18,-0.06,1.01,1000
17:00:25.102,-5.21,-10.62,24.62,-7.93,-8.6,-13.48,0.16,-0.06,0.99,1000
17:00:25.113,-5.16,-10.63,24.45,-6.46,-14.33,-16.77,0.14,-0.04,0.98,1000
17:00:25.124,-5.02,-10.61,24.26,-5.0,-19.94,-20.24,0.13,-0.03,0.96,1000
17:00:25.135,-4.81,-10.67,24.0,-1.46,-26.83,-24.39,0.15,-0.01,0.97,1000
17:00:25.146,-4.48,-10.8,23.74,2.74,-32.68,-27.2,0.19,-0.02,0.97,1000
17:00:25.158,-4.2,-11.13,23.43,9.63,-39.15,-28.66,0.21,-0.04,1.02,1000
17:00:25.168,-3.89,-11.59,23.12,15.55,-40.91,-28.6,0.26,-0.03,0.98,1000
17:00:25.179,-3.54,-12.18,22.81,15.55,-35.55,-27.99,0.28,-0.02,0.99,1000
17:00:25.190,-3.14,-12.79,22.48,0.79,-30.37,-26.77,0.25,0.08,1.01,1000
17:00:25.201,-2.56,-13.29,22.19,-8.9,-24.94,-25.61,0.27,0.06,1.04,1000
17:00:25.212,-2.18,-13.67,21.93,-17.2,-20.3,-26.95,0.29,0.03,1.01,1000
17:00:25.225,-1.86,-14.08,21.62,-24.57,-13.17,-29.15,0.3,0.01,1.04,1000
17:00:25.234,-1.85,-14.4,21.29,-32.87,-2.62,-33.11,0.31,-0.02,1.02,1000
17:00:25.245,-2.04,-14.59,20.91,-43.54,9.63,-36.22,0.28,-0.02,1.04,1000
17:00:25.256,-2.36,-14.59,20.49,-52.68,23.96,-38.66,0.29,-0.02,1.03,1000
17:00:25.271,-2.87,-14.51,20.06,-59.09,34.39,-39.21,0.32,-0.08,1.03,1000
17:00:25.279,-3.61,-14.3,19.59,-60.79,40.61,-39.33,0.31,-0.12,1.0,1000
17:00:25.290,-4.42,-14.17,19.16,-58.17,42.74,-39.7,0.3,-0.15,1.0,1000
17:00:25.300,-5.13,-14.02,18.76,-54.21,40.37,-40.24,0.32,-0.16,0.97,1000
17:00:25.311,-5.92,-13.84,18.27,-47.5,40.24,-42.38,0.27,-0.16,0.96,1000
17:00:25.322,-6.6,-13.76,17.83,-42.93,38.84,-45.0,0.27,-0.17,0.98,1000
17:00:25.333,-7.25,-13.6,17.32,-33.84,34.7,-47.93,0.26,-0.19,0.97,1000
17:00:25.345,-7.82,-13.43,16.78,-24.33,31.22,-51.28,0.23,-0.2,0.97,1000
17:00:25.357,-8.27,-13.23,16.2,-16.22,26.4,-55.06,0.23,-0.17,0.99,1000
17:00:25.371,-8.55,-13.03,15.57,-8.96,22.8,-58.9,0.24,-0.16,0.99,1000
17:00:25.377,-8.7,-12.9,14.91,-2.68,19.21,-61.71,0.24,-0.15,0.99,1000
17:00:25.388,-8.74,-12.78,14.16,2.2,16.4,-63.66,0.22,-0.14,0.99,1000
17:00:25.401,-8.63,-12.68,13.45,5.0,15.06,-65.61,0.23,-0.13,1.0,1000
17:00:25.412,-8.47,-12.59,12.78,6.52,14.15,-67.74,0.22,-0.12,1.01,1000
17:00:25.421,-8.26,-12.48,12.03,7.8,14.02,-69.76,0.23,-0.1,1.02,1000
17:00:25.432,-7.99,-12.4,11.25,7.07,14.57,-71.89,0.24,-0.1,1.02,1000
17:00:25.443,-7.74,-12.34,10.45,5.49,16.16,-74.39,0.24,-0.11,1.02,1000
17:00:25.456,-7.55,-12.27,9.62,3.84,18.29,-76.71,0.23,-0.12,1.03,1000
17:00:25.477,-7.41,-12.18,8.76,2.38,18.6,-78.23,0.22,-0.12,1.03,1000
17:00:25.477,-7.3,-12.07,7.82,1.71,18.48,-79.63,0.22,-0.12,1.02,1000
17:00:25.488,-7.23,-11.97,6.93,0.61,18.84,-80.67,0.22,-0.13,1.0,1000
17:00:25.500,-7.2,-11.88,6.12,-1.1,18.9,-81.59,0.23,-0.14,1.01,1000
17:00:25.509,-7.24,-11.77,5.22,-3.29,18.96,-81.95,0.21,-0.14,1.0,1000
17:00:25.520,-7.29,-11.64,4.24,-5.37,18.54,-81.59,0.21,-0.13,1.01,1000
17:00:25.533,-7.34,-11.56,3.43,-6.46,17.62,-81.4,0.22,-0.13,1.0,1000
17:00:25.542,-7.4,-11.47,2.53,-7.68,16.4,-81.1,0.2,-0.13,1.0,1000
17:00:25.557,-7.46,-11.38,1.64,-9.09,15.55,-80.43,0.2,-0.13,1.0,1000
17:00:25.566,-7.55,-11.27,0.76,-10.91,15.43,-80.0,0.2,-0.14,1.01,1000
17:00:25.578,-7.67,-11.14,-0.12,-12.68,15.49,-79.82,0.19,-0.15,1.01,1000
17:00:25.586,-7.84,-11.0,-1.0,-14.7,15.85,-79.82,0.19,-0.16,1.03,1000
17:00:25.597,-8.05,-10.81,-1.87,-16.65,15.98,-79.15,0.18,-0.16,1.02,1000
17:00:25.608,-8.27,-10.62,-2.74,-18.11,15.85,-78.29,0.18,-0.17,1.03,1000
17:00:25.620,-8.52,-10.43,-3.59,-18.84,15.18,-77.44,0.17,-0.17,1.03,1000
17:00:25.630,-8.79,-10.24,-4.44,-18.78,13.84,-76.28,0.17,-0.18,1.03,1000
17:00:25.641,-9.11,-10.03,-5.35,-18.29,12.13,-75.06,0.16,-0.19,1.02,1000
17:00:25.653,-9.41,-9.84,-6.1,-18.05,11.04,-73.6,0.14,-0.21,1.02,1000
17:00:25.663,-9.75,-9.61,-6.9,-18.11,10.61,-72.01,0.14,-0.21,1.01,1000
17:00:25.679,-10.12,-9.35,-7.68,-16.83,10.18,-70.37,0.13,-0.22,1.01,1000
17:00:25.685,-10.45,-9.12,-8.45,-15.0,9.82,-68.23,0.13,-0.22,1.0,1000
17:00:25.696,-10.79,-8.87,-9.25,-12.8,10.0,-65.67,0.11,-0.23,0.99,1000
17:00:25.707,-11.09,-8.59,-9.9,-10.79,10.49,-63.23,0.11,-0.24,0.98,1000
17:00:25.720,-11.43,-8.27,-10.64,-8.48,11.22,-60.91,0.09,-0.26,0.98,1000
17:00:25.732,-11.71,-7.99,-11.25,-6.46,11.34,-59.33,0.08,-0.27,0.98,1000
17:00:25.742,-12.1,-7.58,-11.95,-4.45,10.79,-57.5,0.07,-0.27,0.98,1000
17:00:25.755,-12.46,-7.18,-12.52,-2.87,10.12,-55.67,0.06,-0.27,0.98,1000
17:00:25.764,-12.79,-6.77,-13.12,-1.89,9.63,-53.54,0.06,-0.27,0.96,1000
17:00:25.778,-13.06,-6.4,-13.7,-1.65,9.39,-50.73,0.06,-0.26,0.97,1000
17:00:25.784,-13.31,-6.02,-14.29,-1.4,8.66,-47.93,0.06,-0.25,0.97,1000
17:00:25.795,-13.48,-5.68,-14.76,-1.1,7.74,-45.06,0.06,-0.24,0.98,1000
17:00:25.806,-13.57,-5.4,-15.24,-0.55,6.65,-41.65,0.06,-0.23,0.98,1000
17:00:25.820,-13.59,-5.09,-15.72,-0.61,6.04,-37.5,0.05,-0.21,0.98,1000
17:00:25.828,-13.53,-4.86,-16.08,-1.28,6.65,-33.72,0.06,-0.2,0.98,1000
17:00:25.840,-13.37,-4.64,-16.46,-2.07,7.74,-29.09,0.07,-0.17,0.99,1000
17:00:25.850,-13.21,-4.5,-16.73,-2.8,8.41,-25.12,0.07,-0.16,0.99,1000
17:00:25.865,-12.93,-4.34,-16.99,-2.93,9.57,-21.22,0.06,-0.15,1.0,1000
17:00:25.873,-12.61,-4.18,-17.21,-4.15,10.37,-18.05,0.05,-0.14,1.0,1000
17:00:25.883,-12.26,-3.98,-17.39,-6.52,11.22,-14.94,0.05,-0.14,0.99,1000
17:00:25.895,-11.92,-3.75,-17.56,-9.39,12.99,-12.93,0.05,-0.12,0.99,1000
17:00:25.906,-11.62,-3.56,-17.68,-11.4,13.78,-12.07,0.05,-0.11,1.0,1000
17:00:25.916,-11.26,-3.36,-17.82,-13.11,13.29,-12.26,0.05,-0.1,1.01,1000
17:00:25.934,-11.05,-3.18,-17.97,-15.18,11.95,-13.48,0.05,-0.1,1.01,1000
17:00:25.948,-10.7,-3.04,-18.13,-17.32,10.43,-15.24,0.06,-0.1,1.01,1000
17:00:25.950,-10.27,-2.96,-18.29,-19.15,9.33,-17.07,0.07,-0.09,1.01,1000
17:00:25.982,-9.96,-2.93,-18.51,-21.65,8.48,-20.0,0.07,-0.08,1.02,1000
17:00:25.982,-9.65,-2.97,-18.72,-23.9,7.87,-22.5,0.08,-0.08,1.02,1000
17:00:25.983,-9.42,-3.03,-19.0,-26.22,7.5,-25.24,0.09,-0.08,1.02,1000
17:00:25.997,-9.12,-3.16,-19.29,-27.44,6.95,-27.44,0.1,-0.07,1.02,1000
17:00:26.005,-8.88,-3.31,-19.57,-27.93,6.52,-29.33,0.1,-0.07,1.01,1000
17:00:26.016,-8.66,-3.48,-19.9,-27.62,6.1,-31.04,0.11,-0.07,1.01,1000
17:00:26.026,-8.47,-3.65,-20.29,-26.95,6.65,-32.62,0.11,-0.07,1.01,1000
17:00:26.040,-8.3,-3.82,-20.62,-25.67,7.2,-33.66,0.11,-0.07,1.02,1000
17:00:26.049,-8.08,-4.01,-20.99,-24.21,8.11,-34.88,0.12,-0.07,1.03,1000
17:00:26.060,-7.92,-4.17,-21.38,-23.17,8.66,-35.61,0.12,-0.07,1.03,1000
17:00:26.071,-7.75,-4.32,-21.77,-22.5,9.7,-36.22,0.12,-0.07,1.03,1000
17:00:26.085,-7.59,-4.44,-22.17,-22.44,10.37,-36.46,0.11,-0.09,1.03,1000
17:00:26.092,-7.48,-4.53,-22.58,-21.52,10.61,-37.26,0.1,-0.1,1.03,1000
17:00:26.103,-7.4,-4.58,-22.99,-20.0,10.12,-38.05,0.09,-0.1,1.03,1000
17:00:26.115,-7.36,-4.59,-23.41,-18.35,9.94,-38.72,0.09,-0.11,1.03,1000
17:00:26.127,-7.34,-4.56,-23.88,-16.22,9.63,-39.57,0.08,-0.11,1.03,1000
17:00:26.137,-7.28,-4.52,-24.28,-14.39,9.45,-40.12,0.08,-0.11,1.03,1000
17:00:26.147,-7.26,-4.46,-24.73,-12.26,9.45,-41.16,0.08,-0.13,1.04,1000
17:00:26.158,-7.25,-4.38,-25.23,-9.09,9.09,-42.56,0.07,-0.14,1.04,1000
17:00:26.169,-7.24,-4.3,-25.65,-6.28,8.41,-42.93,0.06,-0.14,1.04,1000
17:00:26.182,-7.23,-4.21,-26.13,-2.99,8.6,-42.87,0.06,-0.13,1.04,1000
17:00:26.193,-7.19,-4.07,-26.6,-0.3,9.57,-42.32,0.06,-0.14,1.03,1000
17:00:26.204,-7.14,-3.93,-27.06,2.26,10.49,-41.83,0.05,-0.15,1.04,1000
17:00:26.213,-7.09,-3.76,-27.52,4.45,11.52,-41.52,0.04,-0.17,1.04,1000
17:00:26.224,-7.12,-3.54,-28.01,6.83,12.32,-41.22,0.05,-0.18,1.06,1000
17:00:26.235,-7.24,-3.34,-28.47,8.72,12.2,-41.34,0.06,-0.19,1.07,1000
17:00:26.246,-7.36,-3.22,-28.88,9.82,12.62,-40.85,0.07,-0.19,1.07,1000
17:00:26.257,-7.42,-3.12,-29.32,9.45,14.21,-38.9,0.06,-0.18,1.06,1000
17:00:26.269,-7.5,-3.0,-29.77,7.13,17.26,-35.67,0.06,-0.17,1.04,1000
17:00:26.280,-7.59,-2.88,-30.15,3.48,21.22,-31.95,0.06,-0.17,1.04,1000
17:00:26.293,-7.7,-2.74,-30.45,-0.24,24.09,-29.45,0.06,-0.17,1.04,1000
17:00:26.301,-7.86,-2.54,-30.77,-4.57,26.22,-27.44,0.04,-0.19,1.05,1000
17:00:26.312,-8.13,-2.27,-31.09,-9.09,27.56,-26.59,0.04,-0.21,1.03,1000
17:00:26.323,-8.45,-2.02,-31.35,-12.93,27.99,-26.52,0.03,-0.21,1.02,1000
17:00:26.334,-8.84,-1.75,-31.65,-17.07,27.74,-27.56,0.03,-0.21,1.0,1000
17:00:26.345,-9.26,-1.5,-31.96,-20.43,26.95,-29.45,0.03,-0.21,1.0,1000
17:00:26.357,-9.68,-1.3,-32.29,-23.23,25.67,-31.59,0.04,-0.21,0.99,1000
17:00:26.370,-10.09,-1.11,-32.69,-24.45,24.33,-34.76,0.04,-0.22,0.99,1000
17:00:26.378,-10.52,-0.99,-33.08,-25.49,23.11,-37.26,0.04,-0.22,0.99,1000
17:00:26.396,-10.92,-0.93,-33.47,-25.91,21.95,-39.45,0.05,-0.23,0.98,1000
17:00:26.401,-11.35,-0.88,-33.95,-26.34,21.16,-41.59,0.06,-0.22,0.97,1000
17:00:26.411,-11.69,-0.9,-34.37,-25.91,21.22,-42.44,0.05,-0.22,0.97,1000
17:00:26.423,-12.03,-0.93,-34.84,-25.79,21.34,-43.11,0.07,-0.22,0.96,1000
17:00:26.436,-12.38,-1.03,-35.36,-25.3,21.95,-43.41,0.08,-0.22,0.96,1000
17:00:26.444,-12.66,-1.23,-35.79,-24.82,22.74,-43.11,0.08,-0.23,0.95,1000
17:00:26.455,-12.95,-1.33,-36.31,-23.78,23.78,-42.74,0.09,-0.22,0.94,1000
17:00:26.466,-13.15,-1.58,-36.74,-23.23,25.3,-42.07,0.09,-0.22,0.93,1000
17:00:26.478,-13.35,-1.74,-37.19,-22.26,26.89,-40.73,0.1,-0.22,0.92,1000
17:00:26.499,-13.53,-1.85,-37.64,-21.28,28.35,-39.82,0.1,-0.21,0.92,1000
17:00:26.500,-13.68,-2.03,-38.1,-20.06,29.09,-38.17,0.09,-0.22,0.91,1000
17:00:26.510,-13.81,-2.17,-38.52,-19.15,29.09,-37.01,0.1,-0.22,0.91,1000
17:00:26.521,-13.9,-2.3,-38.88,-17.99,28.54,-35.98,0.11,-0.22,0.91,1000
17:00:26.536,-13.99,-2.47,-39.27,-16.34,27.44,-35.61,0.1,-0.23,0.91,1000
17:00:26.543,-14.11,-2.61,-39.66,-14.63,26.28,-35.18,0.09,-0.23,0.9,1000
17:00:26.557,-14.25,-2.77,-40.05,-14.21,24.7,-34.45,0.09,-0.24,0.9,1000
17:00:26.565,-14.39,-2.83,-40.42,-14.15,23.54,-33.35,0.09,-0.25,0.89,1000
17:00:26.576,-14.54,-2.94,-40.81,-14.15,21.95,-31.52,0.08,-0.24,0.89,1000
17:00:26.598,-14.68,-3.03,-41.12,-13.54,19.45,-30.43,0.08,-0.25,0.9,1000
17:00:26.600,-14.87,-3.17,-41.45,-12.2,15.79,-29.88,0.07,-0.27,0.91,1000
17:00:26.609,-15.14,-3.27,-41.81,-10.24,10.67,-30.67,0.07,-0.31,0.92,1000
17:00:26.620,-15.48,-3.4,-42.13,-8.48,5.67,-32.32,0.08,-0.33,0.93,1000
17:00:26.631,-15.86,-3.6,-42.53,-5.55,0.06,-34.76,0.09,-0.34,0.96,1000
17:00:26.642,-16.23,-3.85,-42.88,-2.74,-3.6,-36.77,0.11,-0.35,0.97,1000
17:00:26.654,-16.56,-4.18,-43.3,0.37,-6.52,-38.9,0.12,-0.36,0.99,1000
17:00:26.664,-16.85,-4.55,-43.74,3.78,-8.66,-40.61,0.12,-0.37,1.0,1000
17:00:26.677,-17.13,-4.97,-44.23,7.07,-10.0,-42.13,0.13,-0.38,1.01,1000
17:00:26.686,-17.35,-5.36,-44.66,9.09,-9.39,-43.23,0.15,-0.37,1.01,1000
17:00:26.703,-17.5,-5.77,-45.14,10.79,-8.05,-43.84,0.16,-0.36,1.02,1000
17:00:26.709,-17.6,-6.18,-45.62,11.83,-5.61,-44.33,0.17,-0.37,1.01,1000
17:00:26.721,-17.67,-6.58,-46.15,11.89,-2.44,-44.45,0.17,-0.37,1.02,1000
17:00:26.730,-17.75,-6.92,-46.64,11.77,0.24,-44.76,0.16,-0.38,1.01,1000
17:00:26.744,-17.89,-7.17,-47.09,12.01,2.56,-44.88,0.15,-0.4,1.0,1000
17:00:26.752,-18.02,-7.34,-47.59,12.26,4.21,-45.06,0.14,-0.4,1.0,1000
17:00:26.766,-18.22,-7.43,-48.08,12.8,5.3,-44.39,0.12,-0.39,0.99,1000
17:00:26.774,-18.37,-7.44,-48.6,13.72,6.04,-41.95,0.11,-0.37,0.98,1000
17:00:26.786,-18.47,-7.37,-49.01,14.09,6.65,-38.72,0.1,-0.36,0.97,1000
17:00:26.800,-18.5,-7.28,-49.41,14.51,6.77,-34.27,0.09,-0.33,0.96,1000
17:00:26.807,-18.46,-7.16,-49.77,15.18,6.59,-29.7,0.1,-0.31,0.94,1000
17:00:26.818,-18.29,-7.06,-50.1,17.2,5.06,-25.06,0.11,-0.28,0.94,1000
17:00:26.829,-18.02,-7.01,-50.34,19.33,3.05,-22.38,0.11,-0.25,0.93,1000
17:00:26.840,-17.65,-7.03,-50.57,21.83,0.67,-21.4,0.12,-0.26,0.94,1000
17:00:26.853,-17.24,-7.1,-50.81,24.76,-2.07,-22.68,0.12,-0.28,0.96,1000
17:00:26.864,-16.88,-7.21,-51.07,27.93,-4.94,-24.88,0.12,-0.29,0.98,1000
17:00:26.873,-16.49,-7.36,-51.39,30.79,-7.56,-27.38,0.14,-0.29,1.0,1000
17:00:26.885,-16.15,-7.53,-51.66,31.59,-7.5,-28.05,0.16,-0.27,1.0,1000
17:00:26.895,-15.75,-7.76,-51.97,30.79,-5.3,-27.8,0.17,-0.26,1.0,1000
17:00:26.911,-15.35,-8.0,-52.27,27.87,-0.98,-26.71,0.18,-0.25,1.0,1000
17:00:26.918,-14.97,-8.2,-52.56,24.39,4.27,-25.3,0.17,-0.23,1.0,1000
17:00:26.929,-14.61,-8.35,-52.83,19.39,10.43,-24.57,0.18,-0.23,0.99,1000
17:00:26.939,-14.32,-8.45,-53.1,13.72,15.0,-24.76,0.17,-0.24,1.0,1000
17:00:26.950,-14.11,-8.46,-53.38,8.54,17.2,-25.91,0.15,-0.23,1.0,1000
17:00:26.961,-13.95,-8.43,-53.71,2.62,17.99,-28.84,0.15,-0.24,0.98,1000
17:00:26.972,-13.91,-8.35,-54.01,-2.2,17.13,-31.83,0.12,-0.25,0.98,1000
17:00:26.984,-13.97,-8.2,-54.37,-6.89,14.27,-35.61,0.11,-0.26,0.97,1000
17:00:26.995,-14.1,-8.03,-54.78,-10.12,10.37,-38.9,0.09,-0.26,0.97,1000
17:00:27.005,-14.28,-7.86,-55.23,-12.32,5.06,-42.26,0.08,-0.26,0.96,1000
17:00:27.016,-14.48,-7.7,-55.7,-13.29,-0.98,-44.33,0.07,-0.26,0.97,1000
17:00:27.027,-14.68,-7.52,-56.2,-12.93,-7.01,-45.73,0.07,-0.27,0.98,1000
17:00:27.038,-14.86,-7.44,-56.75,-11.28,-12.93,-46.59,0.07,-0.26,0.99,1000
17:00:27.050,-14.95,-7.28,-57.26,-8.78,-17.44,-46.1,0.07,-0.24,1.0,1000
17:00:27.060,-14.97,-7.27,-57.77,-5.98,-19.76,-45.18,0.08,-0.24,1.0,1000
17:00:27.071,-14.87,-7.22,-58.21,-3.66,-19.76,-43.96,0.08,-0.22,1.01,1000
17:00:27.082,-14.64,-7.21,-58.69,-1.52,-17.56,-42.32,0.1,-0.2,1.01,1000
17:00:27.097,-14.39,-7.29,-59.15,-0.12,-13.35,-40.91,0.12,-0.19,1.01,1000
17:00:27.104,-14.08,-7.38,-59.59,0.43,-7.74,-39.88,0.12,-0.18,1.0,1000
17:00:27.116,-13.69,-7.39,-60.07,0.79,-1.89,-40.24,0.11,-0.21,1.01,1000
17:00:27.126,-13.43,-7.34,-60.52,0.24,1.83,-42.13,0.1,-0.23,1.01,1000
17:00:27.137,-13.28,-7.22,-61.0,-0.98,3.84,-45.37,0.09,-0.23,1.03,1000
17:00:27.148,-13.2,-7.05,-61.47,-2.56,3.78,-47.93,0.08,-0.23,1.03,1000
17:00:27.161,-13.14,-6.85,-62.01,-4.94,3.05,-50.61,0.08,-0.22,1.04,1000
17:00:27.170,-13.1,-6.7,-62.58,-7.74,1.95,-52.62,0.07,-0.21,1.03,1000
17:00:27.181,-13.04,-6.48,-63.16,-10.98,1.1,-53.72,0.06,-0.21,1.03,1000
17:00:27.194,-13.04,-6.32,-63.76,-13.72,0.61,-54.33,0.05,-0.22,1.02,1000
17:00:27.218,-13.07,-6.05,-64.41,-15.67,0.73,-54.88,0.04,-0.23,1.01,1000
17:00:27.218,-13.15,-5.75,-64.96,-16.52,1.16,-54.7,0.04,-0.23,1.01,1000
17:00:27.225,-13.27,-5.42,-65.61,-16.65,2.07,-53.29,0.05,-0.24,1.0,1000
17:00:27.236,-13.39,-5.19,-66.14,-15.61,2.56,-52.38,0.06,-0.23,1.0,1000
17:00:27.247,-13.48,-5.03,-66.71,-13.48,2.56,-50.98,0.08,-0.22,0.99,1000
17:00:27.258,-13.52,-4.96,-67.31,-10.73,2.56,-49.02,0.1,-0.21,0.98,1000
17:00:27.269,-13.46,-4.98,-67.84,-7.93,2.2,-47.07,0.1,-0.19,0.98,1000
17:00:27.281,-13.29,-5.07,-68.34,-5.61,1.95,-44.33,0.12,-0.18,0.98,1000
17:00:27.291,-13.06,-5.22,-68.77,-3.96,1.77,-41.46,0.12,-0.17,0.97,1000
17:00:27.302,-12.81,-5.4,-69.22,-3.17,1.22,-39.09,0.13,-0.17,0.98,1000
17:00:27.318,-12.55,-5.59,-69.64,-2.74,-0.24,-36.95,0.12,-0.17,1.0,1000
17:00:27.324,-12.3,-5.78,-70.04,-3.11,-2.01,-35.79,0.11,-0.18,1.0,1000
17:00:27.336,-12.08,-5.95,-70.46,-3.84,-4.33,-35.37,0.1,-0.18,1.0,1000
17:00:27.347,-11.92,-6.06,-70.82,-4.94,-5.98,-34.94,0.1,-0.18,1.0,1000
17:00:27.360,-11.79,-6.16,-71.2,-6.16,-6.52,-34.94,0.09,-0.18,1.0,1000
17:00:27.368,-11.69,-6.23,-71.59,-7.07,-7.01,-35.18,0.08,-0.19,0.99,1000
17:00:27.381,-11.59,-6.25,-72.01,-6.95,-6.65,-35.37,0.08,-0.19,1.0,1000
17:00:27.391,-11.51,-6.25,-72.4,-6.65,-5.18,-35.12,0.08,-0.17,0.99,1000
17:00:27.401,-11.38,-6.19,-72.75,-6.34,-3.11,-33.96,0.09,-0.16,0.98,1000
17:00:27.414,-11.18,-6.14,-73.11,-6.16,0.0,-31.65,0.1,-0.14,0.97,1000
17:00:27.425,-10.91,-6.08,-73.44,-6.1,2.99,-28.05,0.1,-0.11,0.96,1000
17:00:27.436,-10.6,-6.05,-73.73,-6.65,5.91,-24.15,0.1,-0.1,0.95,1000
17:00:27.446,-10.24,-6.02,-74.0,-7.99,8.17,-19.88,0.11,-0.08,0.95,1000
17:00:27.458,-9.81,-6.03,-74.2,-9.15,8.6,-16.83,0.11,-0.09,0.95,1000
17:00:27.468,-9.38,-6.05,-74.36,-10.0,7.62,-14.45,0.11,-0.09,0.95,1000
17:00:27.478,-9.0,-6.07,-74.51,-10.3,5.79,-12.44,0.11,-0.09,0.96,1000
17:00:27.489,-8.66,-6.1,-74.65,-10.18,2.62,-11.59,0.11,-0.09,0.97,1000
17:00:27.503,-8.29,-6.16,-74.77,-9.27,-0.98,-10.79,0.1,-0.08,0.97,1000
17:00:27.519,-8.01,-6.23,-74.88,-7.8,-5.24,-10.0,0.1,-0.08,0.97,1000
17:00:27.525,-7.7,-6.32,-74.99,-5.73,-9.88,-9.21,0.1,-0.08,0.98,1000
17:00:27.533,-7.39,-6.43,-75.08,-3.96,-14.02,-8.23,0.08,-0.09,0.99,1000
17:00:27.544,-7.1,-6.48,-75.17,-1.16,-17.99,-7.2,0.06,-0.11,1.0,1000
17:00:27.555,-6.89,-6.47,-75.24,1.46,-21.34,-5.67,0.04,-0.12,1.01,1000
17:00:27.566,-6.75,-6.43,-75.3,4.57,-23.48,-4.02,0.02,-0.13,1.03,1000
17:00:27.577,-6.63,-6.28,-75.33,8.66,-25.3,-2.2,0.01,-0.15,1.04,1000
17:00:27.588,-6.58,-6.03,-75.35,12.38,-26.28,-0.49,0.01,-0.16,1.06,1000
17:00:27.599,-6.5,-5.81,-75.34,17.13,-26.34,1.83,0.02,-0.15,1.08,1000
17:00:27.610,-6.36,-5.66,-75.31,22.01,-25.24,4.63,0.03,-0.15,1.1,1000
17:00:27.621,-6.23,-5.48,-75.25,25.61,-23.11,7.13,0.03,-0.16,1.11,1000
17:00:27.632,-5.99,-5.4,-75.14,28.84,-19.57,10.43,0.03,-0.16,1.12,1000
17:00:27.643,-5.84,-5.25,-75.03,31.16,-16.89,12.38,0.03,-0.18,1.13,1000
17:00:27.654,-5.73,-5.06,-74.89,32.74,-14.39,13.11,0.03,-0.19,1.14,1000
17:00:27.665,-5.63,-4.9,-74.75,33.78,-13.23,12.74,0.04,-0.2,1.15,1000
17:00:27.676,-5.61,-4.72,-74.61,33.78,-12.93,11.52,0.05,-0.19,1.16,1000
17:00:27.688,-5.64,-4.6,-74.49,32.26,-12.38,9.76,0.08,-0.18,1.16,1000
17:00:27.698,-5.6,-4.59,-74.39,29.15,-10.91,8.17,0.09,-0.17,1.16,1000
17:00:27.709,-5.53,-4.66,-74.3,25.43,-8.35,6.89,0.11,-0.15,1.15,1000
17:00:27.724,-5.49,-4.77,-74.24,22.07,-6.28,5.67,0.13,-0.14,1.15,1000
17:00:27.731,-5.36,-4.91,-74.18,19.15,-3.66,5.06,0.13,-0.13,1.14,1000
17:00:27.743,-5.24,-5.03,-74.12,16.83,-0.67,5.3,0.13,-0.12,1.11,1000
17:00:27.754,-5.15,-5.15,-74.06,15.37,2.8,6.46,0.13,-0.12,1.1,1000
17:00:27.767,-5.03,-5.21,-73.97,14.63,7.13,8.48,0.12,-0.11,1.08,1000
17:00:27.775,-4.92,-5.22,-73.88,14.76,10.61,10.73,0.12,-0.11,1.06,1000
17:00:27.786,-4.81,-5.24,-73.75,15.06,13.54,13.29,0.12,-0.1,1.05,1000
17:00:27.797,-4.7,-5.23,-73.59,15.18,15.49,15.91,0.12,-0.11,1.03,1000
17:00:27.810,-4.61,-5.2,-73.4,14.57,17.26,18.05,0.12,-0.1,1.01,1000
17:00:27.821,-4.53,-5.17,-73.18,12.62,18.17,19.76,0.12,-0.1,0.99,1000
17:00:27.831,-4.52,-5.18,-72.98,10.49,18.41,20.12,0.12,-0.11,0.99,1000
17:00:27.841,-4.53,-5.19,-72.76,7.56,17.62,19.7,0.13,-0.11,0.99,1000
17:00:27.852,-4.62,-5.24,-72.55,4.51,16.28,18.11,0.13,-0.13,0.98,1000
17:00:27.863,-4.79,-5.29,-72.35,1.83,14.51,16.28,0.11,-0.14,0.97,1000
17:00:27.874,-4.98,-5.29,-72.19,-1.4,12.68,13.96,0.11,-0.16,0.95,1000
17:00:27.887,-5.31,-5.32,-72.03,-3.9,10.49,11.28,0.11,-0.17,0.94,1000
17:00:27.898,-5.65,-5.35,-71.93,-4.94,8.35,9.94,0.11,-0.17,0.94,1000
17:00:27.907,-6.07,-5.45,-71.83,-5.61,6.4,8.23,0.14,-0.17,0.93,1000
17:00:27.918,-6.58,-5.69,-71.74,-6.59,5.3,6.77,0.16,-0.16,0.93,1000
17:00:27.930,-6.99,-6.03,-71.67,-7.13,5.24,6.59,0.17,-0.15,0.93,1000
17:00:27.940,-7.27,-6.34,-71.6,-7.13,6.04,6.59,0.19,-0.16,0.93,1000
17:00:27.953,-7.54,-6.69,-71.52,-6.46,7.2,7.32,0.19,-0.18,0.94,1000
17:00:27.962,-7.86,-7.08,-71.43,-5.18,8.84,9.39,0.18,-0.18,0.94,1000
17:00:27.973,-8.16,-7.41,-71.31,-2.93,10.55,13.41,0.19,-0.18,0.94,1000
17:00:27.984,-8.42,-7.71,-71.12,0.0,11.95,18.17,0.19,-0.17,0.93,1000
17:00:27.995,-8.58,-7.99,-70.92,2.44,13.23,23.48,0.19,-0.16,0.93,1000
17:00:28.008,-8.65,-8.3,-70.63,4.45,14.45,29.88,0.19,-0.14,0.92,1000
17:00:28.019,-8.61,-8.46,-70.27,5.43,15.0,36.71,0.17,-0.14,0.93,1000
17:00:28.028,-8.54,-8.56,-69.79,6.04,14.02,43.72,0.15,-0.14,0.95,1000
17:00:28.039,-8.47,-8.59,-69.33,6.28,11.77,48.66,0.14,-0.14,0.95,1000
17:00:28.050,-8.37,-8.54,-68.72,6.89,7.26,53.84,0.13,-0.14,0.96,1000
17:00:28.061,-8.28,-8.49,-68.16,7.2,2.32,57.26,0.12,-0.14,0.96,1000
17:00:28.073,-8.17,-8.43,-67.52,7.74,-3.11,60.79,0.11,-0.13,0.98,1000
17:00:28.083,-8.03,-8.42,-66.77,8.23,-8.29,64.45,0.13,-0.11,0.99,1000
17:00:28.094,-7.86,-8.47,-66.11,9.39,-12.26,66.77,0.14,-0.1,1.01,1000
17:00:28.105,-7.61,-8.57,-65.37,11.04,-16.22,68.54,0.13,-0.09,1.01,1000
17:00:28.117,-7.29,-8.73,-64.53,12.56,-19.21,70.98,0.14,-0.08,1.02,1000
17:00:28.131,-6.91,-8.86,-63.82,13.84,-20.24,72.38,0.15,-0.07,1.02,1000
17:00:28.138,-6.47,-9.08,-62.94,15.18,-20.0,73.41,0.16,-0.06,1.04,1000
17:00:28.149,-6.08,-9.26,-62.21,15.98,-18.72,73.6,0.15,-0.07,1.04,1000
17:00:28.163,-5.69,-9.4,-61.4,16.71,-16.95,72.8,0.14,-0.08,1.05,1000
17:00:28.171,-5.34,-9.48,-60.61,17.62,-14.63,70.67,0.14,-0.08,1.06,1000
17:00:28.182,-5.03,-9.5,-59.84,18.54,-12.01,68.17,0.13,-0.08,1.07,1000
17:00:28.195,-4.74,-9.4,-59.05,18.54,-8.6,64.02,0.13,-0.1,1.07,1000
17:00:28.204,-4.54,-9.27,-58.36,18.78,-5.37,59.76,0.12,-0.09,1.07,1000
17:00:28.215,-4.37,-9.09,-57.78,18.78,-2.56,55.49,0.12,-0.08,1.06,1000
17:00:28.234,-4.17,-8.88,-57.19,18.96,-0.06,51.16,0.11,-0.08,1.05,1000
17:00:28.240,-3.96,-8.64,-56.66,18.84,1.89,46.28,0.11,-0.07,1.04,1000
17:00:28.248,-3.77,-8.43,-56.17,17.74,4.33,41.16,0.1,-0.08,1.03,1000
17:00:28.259,-3.56,-8.16,-55.7,16.22,6.22,36.1,0.12,-0.06,1.03,1000
17:00:28.270,-3.41,-7.94,-55.36,14.21,7.26,31.22,0.12,-0.06,1.03,1000
17:00:28.283,-3.28,-7.74,-55.04,11.46,9.09,25.37,0.11,-0.07,1.04,1000
17:00:28.292,-3.22,-7.52,-54.79,8.66,10.12,19.7,0.12,-0.09,1.05,1000
17:00:28.304,-3.23,-7.35,-54.61,5.73,9.7,13.6,0.13,-0.09,1.05,1000
17:00:28.315,-3.3,-7.22,-54.48,2.93,8.9,8.05,0.14,-0.09,1.05,1000
17:00:28.327,-3.39,-7.14,-54.42,-1.04,8.66,1.65,0.15,-0.08,1.05,1000
17:00:28.339,-3.52,-7.15,-54.43,-5.3,9.09,-2.8,0.15,-0.08,1.05,1000
17:00:28.349,-3.66,-7.19,-54.47,-9.09,9.88,-7.01,0.16,-0.08,1.04,1000
17:00:28.358,-3.82,-7.22,-54.57,-12.8,10.73,-11.34,0.16,-0.09,1.04,1000
17:00:28.371,-4.03,-7.27,-54.72,-15.98,10.55,-15.55,0.16,-0.1,1.04,1000
17:00:28.381,-4.31,-7.31,-54.91,-18.29,9.51,-19.88,0.15,-0.12,1.03,1000
17:00:28.391,-4.65,-7.34,-55.15,-20.37,8.84,-22.99,0.14,-0.12,1.02,1000
17:00:28.402,-5.03,-7.35,-55.41,-21.95,7.56,-24.76,0.13,-0.11,1.02,1000
17:00:28.413,-5.38,-7.31,-55.68,-23.48,6.59,-25.06,0.12,-0.1,1.01,1000
17:00:28.425,-5.67,-7.23,-55.95,-23.66,4.88,-24.02,0.1,-0.1,1.02,1000
17:00:28.438,-5.93,-7.11,-56.21,-22.74,2.01,-22.32,0.09,-0.1,1.02,1000
17:00:28.446,-6.15,-6.99,-56.45,-20.67,-0.98,-20.43,0.08,-0.12,1.03,1000
17:00:28.457,-6.36,-6.84,-56.66,-17.38,-4.09,-18.11,0.06,-0.14,1.03,1000
17:00:28.468,-6.61,-6.63,-56.85,-12.99,-6.4,-15.98,0.07,-0.17,1.03,1000
17:00:28.482,-6.95,-6.4,-57.02,-8.29,-7.8,-14.88,0.06,-0.19,1.03,1000
17:00:28.490,-7.3,-6.2,-57.18,-2.56,-8.48,-13.72,0.06,-0.2,1.04,1000
17:00:28.502,-7.63,-6.01,-57.32,2.8,-8.23,-12.8,0.07,-0.2,1.04,1000
17:00:28.512,-7.88,-5.88,-57.46,8.6,-7.44,-12.5,0.08,-0.2,1.05,1000
17:00:28.523,-7.99,-5.82,-57.6,13.84,-6.46,-11.89,0.1,-0.17,1.06,1000
17:00:28.538,-7.98,-5.82,-57.74,18.23,-4.63,-11.59,0.12,-0.15,1.06,1000
17:00:28.549,-7.87,-5.86,-57.85,20.49,-2.32,-11.22,0.12,-0.13,1.05,1000
17:00:28.556,-7.67,-5.92,-57.97,21.22,0.55,-10.67,0.13,-0.12,1.04,1000
17:00:28.567,-7.43,-5.97,-58.09,19.45,3.84,-10.18,0.12,-0.12,1.03,1000
17:00:28.578,-7.21,-6.0,-58.2,15.55,6.46,-9.94,0.11,-0.11,1.01,1000
17:00:28.590,-7.02,-5.99,-58.31,11.22,7.26,-9.82,0.1,-0.11,1.02,1000
17:00:28.600,-6.88,-5.93,-58.42,6.04,5.85,-10.49,0.1,-0.12,1.02,1000
17:00:28.611,-6.82,-5.87,-58.55,0.73,1.83,-12.13,0.09,-0.12,1.02,1000
17:00:28.624,-6.82,-5.81,-58.68,-3.41,-3.29,-13.23,0.08,-0.12,1.03,1000
17:00:28.633,-6.85,-5.8,-58.84,-7.56,-9.15,-14.09,0.09,-0.11,1.03,1000
17:00:28.650,-6.86,-5.84,-59.0,-10.61,-13.84,-14.88,0.1,-0.09,1.03,1000
17:00:28.656,-6.86,-5.95,-59.16,-12.44,-16.77,-14.27,0.11,-0.08,1.04,1000
17:00:28.667,-6.8,-6.09,-59.3,-13.29,-17.62,-13.35,0.11,-0.08,1.04,1000
17:00:28.679,-6.76,-6.27,-59.45,-13.23,-16.46,-11.52,0.11,-0.09,1.04,1000
17:00:28.688,-6.69,-6.41,-59.56,-12.5,-13.54,-9.76,0.12,-0.09,1.03,1000
17:00:28.699,-6.64,-6.55,-59.66,-10.91,-8.72,-7.26,0.12,-0.09,1.03,1000
17:00:28.712,-6.61,-6.63,-59.73,-9.33,-3.23,-5.18,0.12,-0.1,1.02,1000
17:00:28.722,-6.59,-6.65,-59.78,-7.32,2.8,-3.41,0.12,-0.12,1.02,1000
17:00:28.732,-6.61,-6.61,-59.81,-5.43,7.56,-2.87,0.13,-0.13,1.02,1000
17:00:28.751,-6.66,-6.55,-59.84,-3.11,11.4,-2.99,0.13,-0.13,1.03,1000
17:00:28.754,-6.7,-6.48,-59.88,-1.65,13.66,-3.78,0.13,-0.12,1.02,1000
17:00:28.765,-6.73,-6.4,-59.92,-1.1,15.61,-4.94,0.13,-0.12,1.01,1000
17:00:28.776,-6.78,-6.32,-59.99,-1.77,16.71,-7.13,0.13,-0.13,1.01,1000
17:00:28.790,-6.85,-6.23,-60.08,-2.62,16.89,-9.51,0.12,-0.14,1.0,1000
17:00:28.798,-6.97,-6.13,-60.2,-4.27,15.49,-13.05,0.11,-0.15,1.0,1000
17:00:28.810,-7.15,-6.04,-60.36,-5.67,13.17,-16.83,0.11,-0.16,0.99,1000
17:00:28.820,-7.4,-5.96,-60.56,-7.26,10.37,-20.73,0.1,-0.16,0.99,1000
17:00:28.834,-7.64,-5.88,-60.83,-8.66,7.38,-23.72,0.1,-0.15,0.98,1000
17:00:28.854,-7.84,-5.84,-61.07,-9.63,5.06,-25.18,0.1,-0.15,0.99,1000
17:00:28.854,-8.03,-5.82,-61.35,-10.61,2.56,-25.73,0.1,-0.15,1.0,1000
17:00:28.866,-8.21,-5.81,-61.63,-11.65,0.73,-25.67,0.1,-0.15,1.0,1000
17:00:28.876,-8.34,-5.81,-61.91,-12.5,-0.49,-24.63,0.1,-0.14,1.01,1000
17:00:28.886,-8.46,-5.82,-62.17,-12.87,-1.4,-22.44,0.09,-0.14,1.01,1000
17:00:28.897,-8.56,-5.81,-62.41,-12.74,-1.83,-19.63,0.09,-0.14,1.01,1000
17:00:28.912,-8.62,-5.8,-62.62,-11.4,-2.38,-15.61,0.09,-0.12,1.02,1000
17:00:28.920,-8.56,-5.77,-62.76,-9.57,-2.8,-11.77,0.09,-0.11,1.01,1000
17:00:28.937,-8.47,-5.76,-62.87,-7.74,-3.11,-7.93,0.09,-0.1,1.02,1000
17:00:28.941,-8.34,-5.75,-62.95,-5.49,-3.66,-4.09,0.09,-0.1,1.02,1000
17:00:28.959,-8.13,-5.71,-62.98,-3.54,-4.27,-1.59,0.08,-0.11,1.03,1000
17:00:28.963,-7.94,-5.67,-62.99,-1.46,-4.82,-0.37,0.08,-0.12,1.03,1000
17:00:28.974,-7.78,-5.61,-62.99,-0.12,-4.94,-0.24,0.08,-0.12,1.04,1000
17:00:28.985,-7.63,-5.54,-63.0,1.16,-4.82,-1.1,0.08,-0.13,1.04,1000
17:00:28.997,-7.53,-5.49,-63.01,1.89,-3.96,-2.13,0.08,-0.13,1.05,1000
17:00:29.007,-7.45,-5.45,-63.05,2.44,-2.8,-3.78,0.09,-0.14,1.04,1000
17:00:29.019,-7.4,-5.4,-63.1,2.26,-1.1,-5.67,0.08,-0.14,1.04,1000
17:00:29.029,-7.39,-5.31,-63.17,1.83,0.67,-7.8,0.08,-0.15,1.05,1000
17:00:29.040,-7.41,-5.21,-63.26,1.52,1.83,-10.06,0.07,-0.15,1.04,1000
17:00:29.053,-7.46,-5.09,-63.38,1.04,2.8,-12.2,0.07,-0.15,1.03,1000
17:00:29.062,-7.53,-4.96,-63.53,0.37,3.05,-13.96,0.08,-0.15,1.03,1000
17:00:29.075,-7.57,-4.86,-63.69,-0.12,3.35,-15.06,0.08,-0.14,1.02,1000
17:00:29.085,-7.61,-4.77,-63.85,-0.91,3.41,-15.73,0.08,-0.14,1.02,1000
17:00:29.098,-7.65,-4.7,-64.04,-1.77,3.17,-15.85,0.08,-0.14,1.02,1000
17:00:29.107,-7.68,-4.66,-64.2,-2.13,2.62,-15.12,0.08,-0.14,1.01,1000
17:00:29.117,-7.72,-4.63,-64.36,-2.38,2.38,-13.84,0.09,-0.14,1.01,1000
17:00:29.128,-7.78,-4.63,-64.52,-2.56,2.01,-11.89,0.09,-0.14,0.99,1000
17:00:29.140,-7.82,-4.64,-64.64,-2.62,1.95,-9.51,0.09,-0.14,0.99,1000
17:00:29.152,-7.86,-4.65,-64.73,-2.01,2.01,-6.83,0.09,-0.14,0.99,1000
17:00:29.161,-7.9,-4.68,-64.79,-1.46,2.13,-5.18,0.09,-0.15,0.99,1000
17:00:29.172,-7.96,-4.7,-64.84,-0.49,1.4,-2.87,0.09,-0.15,0.99,1000
17:00:29.183,-8.01,-4.71,-64.86,0.61,0.43,-1.46,0.08,-0.15,0.99,1000
17:00:29.194,-8.06,-4.72,-64.87,1.59,-0.49,-0.18,0.08,-0.15,0.99,1000
17:00:29.205,-8.08,-4.72,-64.87,2.07,-1.1,1.04,0.08,-0.15,0.99,1000
17:00:29.219,-8.09,-4.72,-64.85,2.13,-1.1,2.01,0.08,-0.14,0.99,1000
17:00:29.227,-8.09,-4.71,-64.83,1.83,-1.16,2.44,0.07,-0.14,0.99,1000
17:00:29.238,-8.07,-4.66,-64.8,1.59,-1.59,2.74,0.07,-0.14,0.98,1000
17:00:29.249,-8.06,-4.6,-64.77,1.16,-2.13,2.26,0.06,-0.14,0.99,1000
17:00:29.265,-8.06,-4.55,-64.75,0.79,-2.99,1.22,0.06,-0.14,0.99,1000
17:00:29.272,-8.06,-4.47,-64.74,0.12,-3.96,0.55,0.06,-0.13,0.99,1000
17:00:29.282,-8.04,-4.41,-64.74,-0.55,-4.94,0.18,0.05,-0.13,0.99,1000
17:00:29.294,-7.99,-4.33,-64.74,-1.95,-5.37,-0.49,0.06,-0.12,1.0,1000
17:00:29.304,-7.94,-4.3,-64.75,-2.68,-6.04,-0.79,0.06,-0.12,1.0,1000
17:00:29.315,-7.88,-4.26,-64.76,-3.17,-7.32,-1.52,0.06,-0.13,1.0,1000
17:00:29.327,-7.83,-4.26,-64.78,-3.05,-9.15,-2.26,0.07,-0.13,1.01,1000
17:00:29.339,-7.79,-4.3,-64.81,-2.87,-10.55,-2.38,0.07,-0.13,1.0,1000
17:00:29.350,-7.75,-4.35,-64.83,-2.62,-11.28,-2.38,0.07,-0.14,1.0,1000
17:00:29.363,-7.74,-4.4,-64.86,-2.13,-11.22,-2.32,0.07,-0.13,1.01,1000
17:00:29.370,-7.72,-4.49,-64.88,-0.91,-11.22,-1.89,0.08,-0.13,1.02,1000
17:00:29.381,-7.69,-4.58,-64.9,-0.18,-11.22,-1.04,0.09,-0.13,1.02,1000
17:00:29.392,-7.66,-4.7,-64.91,0.67,-10.73,-0.49,0.09,-0.14,1.02,1000
17:00:29.406,-7.65,-4.83,-64.91,1.52,-10.79,0.24,0.09,-0.14,1.03,1000
17:00:29.414,-7.63,-4.95,-64.91,2.87,-11.34,0.79,0.1,-0.14,1.03,1000
17:00:29.425,-7.62,-5.11,-64.89,3.96,-11.34,1.59,0.1,-0.15,1.03,1000
17:00:29.437,-7.6,-5.24,-64.87,4.39,-10.91,2.68,0.1,-0.14,1.03,1000
17:00:29.448,-7.57,-5.38,-64.84,5.0,-10.37,3.48,0.11,-0.14,1.04,1000
17:00:29.467,-7.52,-5.52,-64.8,6.1,-10.24,4.45,0.11,-0.14,1.04,1000
17:00:29.469,-7.47,-5.68,-64.74,6.22,-9.7,5.3,0.11,-0.14,1.04,1000
17:00:29.480,-7.42,-5.8,-64.68,6.04,-8.78,6.65,0.12,-0.14,1.04,1000
17:00:29.491,-7.37,-5.93,-64.6,5.85,-7.56,7.26,0.12,-0.14,1.04,1000
17:00:29.506,-7.33,-6.03,-64.52,5.3,-6.52,7.68,0.12,-0.15,1.04,1000
17:00:29.514,-7.32,-6.13,-64.43,4.63,-5.67,8.29,0.12,-0.15,1.04,1000
17:00:29.531,-7.33,-6.2,-64.34,3.6,-5.0,8.48,0.12,-0.15,1.03,1000
17:00:29.536,-7.35,-6.27,-64.24,2.74,-3.96,8.78,0.12,-0.14,1.03,1000
17:00:29.546,-7.38,-6.32,-64.15,1.89,-3.48,8.72,0.12,-0.15,1.02,1000
17:00:29.564,-7.45,-6.39,-64.05,1.34,-2.93,8.66,0.13,-0.15,1.02,1000
17:00:29.571,-7.52,-6.47,-63.95,1.52,-2.93,8.72,0.13,-0.15,1.02,1000
17:00:29.580,-7.56,-6.53,-63.86,1.59,-2.74,9.21,0.13,-0.15,1.02,1000
17:00:29.590,-7.6,-6.61,-63.76,2.32,-3.05,9.21,0.14,-0.15,1.02,1000
17:00:29.602,-7.64,-6.71,-63.66,3.23,-3.05,9.88,0.14,-0.15,1.02,1000
17:00:29.612,-7.65,-6.8,-63.55,4.21,-3.23,10.55,0.14,-0.14,1.02,1000
17:00:29.623,-7.67,-6.94,-63.42,5.0,-3.23,11.71,0.14,-0.15,1.02,1000
17:00:29.634,-7.67,-7.07,-63.28,5.73,-3.05,12.74,0.14,-0.15,1.01,1000
17:00:29.646,-7.68,-7.18,-63.15,6.46,-2.56,13.54,0.14,-0.15,1.01,1000
17:00:29.678,-7.65,-7.27,-62.98,6.77,-1.95,14.76,0.14,-0.15,1.01,1000
17:00:29.678,-7.65,-7.36,-62.82,6.89,-1.46,15.67,0.14,-0.15,1.01,1000
17:00:29.679,-7.64,-7.43,-62.63,7.07,-1.16,16.52,0.14,-0.14,1.02,1000
17:00:29.689,-7.63,-7.49,-62.45,7.32,-1.22,17.2,0.14,-0.14,1.02,1000
17:00:29.700,-7.6,-7.53,-62.27,7.32,-1.59,17.87,0.13,-0.15,1.01,1000
17:00:29.717,-7.58,-7.56,-62.08,6.71,-1.71,18.05,0.13,-0.15,1.01,1000
17:00:29.723,-7.57,-7.56,-61.88,6.34,-1.83,18.23,0.13,-0.15,1.01,1000
17:00:29.733,-7.56,-7.57,-61.66,6.16,-1.89,18.48,0.14,-0.14,1.01,1000
17:00:29.745,-7.55,-7.58,-61.47,5.91,-2.01,18.6,0.14,-0.14,1.01,1000
17:00:29.755,-7.51,-7.61,-61.25,5.43,-1.59,18.84,0.14,-0.13,1.01,1000
17:00:29.766,-7.48,-7.64,-61.04,5.18,-1.65,18.66,0.14,-0.14,1.01,1000
17:00:29.778,-7.46,-7.67,-60.86,4.63,-1.83,18.54,0.14,-0.14,1.02,1000
17:00:29.788,-7.45,-7.7,-60.65,4.02,-1.4,18.29,0.14,-0.14,1.02,1000
17:00:29.799,-7.46,-7.74,-60.44,3.72,-1.4,17.87,0.15,-0.14,1.02,1000
17:00:29.814,-7.47,-7.78,-60.26,3.54,-1.22,17.68,0.15,-0.13,1.01,1000
17:00:29.821,-7.45,-7.83,-60.06,3.17,-1.04,18.17,0.15,-0.13,1.01,1000
17:00:29.834,-7.42,-7.9,-59.84,2.99,-0.61,18.78,0.16,-0.13,1.01,1000
17:00:29.843,-7.37,-7.98,-59.65,3.17,-0.37,19.21,0.17,-0.12,1.02,1000
17:00:29.854,-7.31,-8.07,-59.44,3.48,-0.3,19.7,0.17,-0.12,1.02,1000
17:00:29.871,-7.24,-8.17,-59.22,3.96,-0.49,20.0,0.17,-0.12,1.03,1000
17:00:29.879,-7.16,-8.26,-59.0,4.7,-0.98,20.24,0.17,-0.12,1.03,1000
17:00:29.887,-7.06,-8.37,-58.77,5.37,-1.4,20.73,0.17,-0.11,1.03,1000
17:00:29.898,-6.94,-8.48,-58.53,5.91,-1.71,20.61,0.17,-0.11,1.03,1000
17:00:29.909,-6.82,-8.6,-58.32,6.04,-1.77,20.12,0.17,-0.12,1.03,1000
17:00:29.921,-6.71,-8.7,-58.1,5.98,-1.34,19.57,0.17,-0.11,1.03,1000
17:00:29.931,-6.58,-8.79,-57.89,6.04,-1.22,18.96,0.17,-0.11,1.04,1000
17:00:29.942,-6.46,-8.86,-57.67,5.79,-1.04,17.93,0.17,-0.11,1.04,1000
17:00:29.954,-6.37,-8.91,-57.5,5.79,-0.49,17.01,0.17,-0.11,1.04,1000
17:00:29.965,-6.27,-8.94,-57.31,5.85,-0.18,16.34,0.17,-0.1,1.04,1000
17:00:29.980,-6.16,-8.96,-57.12,5.37,0.85,15.43,0.16,-0.11,1.04,1000
17:00:29.986,-6.08,-8.96,-56.96,5.0,1.65,14.76,0.16,-0.1,1.04,1000
17:00:29.998,-6.0,-8.94,-56.8,4.33,2.5,13.9,0.16,-0.11,1.04,1000
17:00:30.008,-5.94,-8.9,-56.66,3.54,3.41,13.41,0.16,-0.11,1.03,1000
17:00:30.020,-5.91,-8.85,-56.51,2.62,4.39,12.5,0.16,-0.11,1.03,1000
17:00:30.030,-5.91,-8.8,-56.39,2.2,4.57,12.01,0.16,-0.11,1.03,1000
17:00:30.043,-5.9,-8.74,-56.26,2.07,4.45,11.52,0.16,-0.11,1.02,1000
17:00:30.056,-5.92,-8.69,-56.12,0.98,4.7,11.65,0.15,-0.12,1.01,1000
17:00:30.063,-5.95,-8.63,-56.0,0.06,5.3,11.59,0.15,-0.12,1.01,1000
17:00:30.077,-6.02,-8.56,-55.87,-0.85,5.67,11.71,0.14,-0.12,1.0,1000
17:00:30.086,-6.13,-8.46,-55.73,-1.52,5.67,11.52,0.14,-0.13,1.0,1000
17:00:30.097,-6.27,-8.36,-55.62,-1.83,5.3,11.46,0.14,-0.14,1.0,1000
17:00:30.107,-6.45,-8.25,-55.48,-1.95,4.15,10.98,0.13,-0.15,0.99,1000
17:00:30.120,-6.64,-8.14,-55.37,-1.34,2.32,11.1,0.13,-0.14,1.0,1000
17:00:30.129,-6.78,-8.05,-55.25,-0.3,0.61,11.89,0.13,-0.13,1.0,1000
17:00:30.140,-6.88,-7.99,-55.11,0.55,-0.67,12.5,0.13,-0.13,1.01,1000
17:00:30.151,-6.92,-7.95,-54.97,1.34,-1.95,13.23,0.12,-0.12,1.01,1000
17:00:30.162,-6.93,-7.9,-54.81,2.07,-3.05,13.41,0.12,-0.13,1.02,1000
17:00:30.176,-6.94,-7.8,-54.66,2.99,-3.78,12.87,0.1,-0.14,1.02,1000
17:00:30.186,-6.98,-7.68,-54.54,3.6,-4.39,12.01,0.09,-0.15,1.02,1000
17:00:30.195,-7.07,-7.49,-54.41,3.84,-4.09,10.79,0.08,-0.16,1.02,1000
17:00:30.206,-7.16,-7.3,-54.3,3.41,-3.29,9.82,0.08,-0.16,1.02,1000
17:00:30.217,-7.28,-7.07,-54.19,2.26,-1.46,8.29,0.08,-0.16,1.03,1000
17:00:30.228,-7.41,-6.86,-54.11,1.22,-0.12,7.38,0.09,-0.16,1.04,1000
17:00:30.239,-7.55,-6.66,-54.03,0.37,1.1,6.16,0.09,-0.17,1.04,1000
17:00:30.250,-7.72,-6.45,-53.97,0.43,1.46,4.82,0.08,-0.19,1.04,1000
17:00:30.262,-7.96,-6.23,-53.93,1.34,1.59,3.66,0.08,-0.2,1.04,1000
17:00:30.273,-8.19,-6.05,-53.89,3.6,1.28,2.87,0.09,-0.21,1.04,1000
17:00:30.291,-8.47,-5.87,-53.86,6.46,0.98,3.05,0.09,-0.21,1.04,1000
17:00:30.294,-8.72,-5.74,-53.82,9.88,1.28,4.45,0.1,-0.21,1.03,1000
17:00:30.305,-8.91,-5.65,-53.76,12.62,2.07,6.34,0.09,-0.21,1.02,1000
17:00:30.316,-9.08,-5.55,-53.67,15.43,3.84,9.15,0.1,-0.22,1.01,1000
17:00:30.327,-9.2,-5.47,-53.57,17.62,5.43,11.83,0.1,-0.22,1.01,1000
17:00:30.338,-9.34,-5.38,-53.43,20.0,6.83,14.21,0.09,-0.22,1.01,1000
