Timestamp,Roll,Pitch,Yaw,Gyro_X,Gyro_Y,Gyro_Z,Accel_X,Accel_Y,Accel_Z,Throttle
16:50:25.212,-4.38,0.51,-110.47,1.52,-1.22,-1.77,-0.01,-0.08,1.03,1000
16:50:25.223,-4.36,0.51,-110.49,1.71,-1.04,-1.52,-0.01,-0.08,1.02,1000
16:50:25.234,-4.33,0.51,-110.51,1.28,-1.04,-1.28,-0.02,-0.08,1.02,1000
16:50:25.245,-4.32,0.52,-110.52,0.79,-1.04,-0.79,-0.02,-0.08,1.03,1000
16:50:25.256,-4.32,0.54,-110.52,-0.12,-1.22,0.06,-0.02,-0.08,1.03,1000
16:50:25.268,-4.32,0.55,-110.52,-0.3,-1.16,0.3,-0.02,-0.08,1.03,1000
16:50:25.278,-4.33,0.57,-110.52,-0.12,-0.98,0.06,-0.01,-0.08,1.03,1000
16:50:25.289,-4.34,0.58,-110.52,0.43,-0.85,-0.43,-0.01,-0.08,1.03,1000
16:50:25.301,-4.34,0.57,-110.53,1.16,-0.73,-1.59,-0.01,-0.08,1.03,1000
16:50:25.316,-4.34,0.56,-110.55,1.4,-0.91,-2.07,-0.01,-0.08,1.03,1000
16:50:25.322,-4.33,0.54,-110.57,1.28,-0.98,-2.38,0.0,-0.08,1.03,1000
16:50:25.333,-4.33,0.5,-110.6,0.91,-0.91,-2.38,0.0,-0.08,1.03,1000
16:50:25.347,-4.33,0.46,-110.63,0.12,-0.79,-2.13,-0.0,-0.08,1.03,1000
16:50:25.355,-4.33,0.43,-110.64,-0.43,-0.61,-1.59,-0.01,-0.08,1.03,1000
16:50:25.371,-4.35,0.43,-110.66,-1.16,-0.49,-1.28,-0.02,-0.08,1.03,1000
16:50:25.379,-4.37,0.45,-110.67,-1.34,-0.55,-0.91,-0.02,-0.08,1.04,1000
16:50:25.388,-4.39,0.49,-110.68,-1.4,-0.37,-1.1,-0.02,-0.08,1.04,1000
16:50:25.412,-4.41,0.53,-110.7,-1.1,-0.79,-1.28,-0.02,-0.08,1.04,1000
16:50:25.412,-4.4,0.56,-110.71,-0.91,-0.98,-1.34,-0.02,-0.07,1.03,1000
16:50:25.422,-4.39,0.57,-110.72,-0.61,-1.46,-1.22,-0.01,-0.07,1.03,1000
16:50:25.432,-4.37,0.57,-110.73,-0.3,-2.26,-1.1,-0.01,-0.07,1.03,1000
16:50:25.444,-4.34,0.55,-110.74,-0.24,-2.8,-0.79,-0.01,-0.08,1.03,1000
16:50:25.454,-4.32,0.51,-110.75,-0.18,-3.6,-0.3,-0.01,-0.07,1.02,1000
16:50:25.465,-4.3,0.46,-110.75,0.0,-4.39,-0.18,-0.01,-0.07,1.01,1000
16:50:25.478,-4.28,0.4,-110.75,0.55,-4.76,-0.24,0.0,-0.07,1.02,1000
16:50:25.489,-4.25,0.34,-110.76,1.16,-4.21,-0.91,-0.0,-0.07,1.01,1000
16:50:25.498,-4.21,0.28,-110.77,1.52,-3.35,-1.59,0.0,-0.07,1.01,1000
16:50:25.513,-4.16,0.23,-110.79,1.52,-2.32,-2.01,0.0,-0.07,1.01,1000
16:50:25.520,-4.13,0.19,-110.81,1.1,-1.22,-1.83,0.0,-0.07,1.01,1000
16:50:25.531,-4.11,0.17,-110.83,0.61,0.06,-1.28,-0.0,-0.07,1.01,1000
16:50:25.545,-4.1,0.18,-110.84,0.79,1.04,-1.16,-0.01,-0.08,1.01,1000
16:50:25.553,-4.1,0.21,-110.85,0.79,2.32,-1.04,-0.01,-0.08,1.02,1000
16:50:25.589,-4.1,0.25,-110.87,0.85,3.17,-0.91,-0.01,-0.08,1.02,1000
16:50:25.589,-4.09,0.33,-110.88,0.85,3.9,-0.91,-0.01,-0.07,1.03,1000
16:50:25.589,-4.08,0.39,-110.89,0.61,4.02,-0.91,-0.01,-0.07,1.04,1000
16:50:25.597,-4.07,0.43,-110.9,0.49,3.72,-0.79,-0.0,-0.08,1.04,1000
16:50:25.611,-4.07,0.46,-110.91,0.43,3.11,-1.04,-0.01,-0.08,1.04,1000
16:50:25.619,-4.08,0.49,-110.92,0.18,2.5,-1.1,-0.01,-0.08,1.04,1000
16:50:25.630,-4.09,0.5,-110.93,-0.3,1.4,-1.16,-0.01,-0.08,1.04,1000
16:50:25.641,-4.12,0.51,-110.95,-0.67,0.18,-1.65,-0.01,-0.08,1.03,1000
16:50:25.656,-4.14,0.51,-110.97,-0.98,-1.4,-1.83,-0.01,-0.08,1.03,1000
16:50:25.664,-4.17,0.49,-110.98,-1.16,-2.5,-1.89,-0.0,-0.08,1.03,1000
16:50:25.674,-4.2,0.46,-111.01,-0.49,-2.87,-2.32,-0.0,-0.08,1.03,1000
16:50:25.686,-4.23,0.41,-111.03,0.06,-3.05,-2.5,0.0,-0.08,1.03,1000
16:50:25.697,-4.25,0.35,-111.06,0.43,-2.62,-2.68,0.01,-0.08,1.03,1000
16:50:25.714,-4.27,0.3,-111.09,0.55,-2.13,-2.38,0.0,-0.08,1.03,1000
16:50:25.719,-4.27,0.26,-111.12,0.67,-1.52,-1.65,-0.01,-0.08,1.03,1000
16:50:25.730,-4.26,0.24,-111.13,0.49,-0.73,-0.73,-0.01,-0.07,1.02,1000
16:50:25.740,-4.24,0.24,-111.13,0.37,0.0,0.49,-0.01,-0.07,1.03,1000
16:50:25.751,-4.21,0.26,-111.12,-0.06,0.49,1.46,-0.01,-0.07,1.02,1000
16:50:25.762,-4.18,0.29,-111.1,-0.61,0.43,2.2,-0.01,-0.07,1.03,1000
16:50:25.773,-4.16,0.32,-111.07,-0.98,0.43,2.8,-0.01,-0.07,1.03,1000
16:50:25.788,-4.16,0.34,-111.04,-0.85,0.18,2.99,-0.01,-0.08,1.03,1000
16:50:25.795,-4.17,0.34,-111.01,-0.73,0.0,2.56,-0.0,-0.08,1.03,1000
16:50:25.806,-4.18,0.34,-110.99,-0.18,-0.3,1.59,-0.0,-0.08,1.03,1000
16:50:25.817,-4.2,0.32,-110.97,-0.06,-0.49,0.61,-0.0,-0.07,1.03,1000
16:50:25.828,-4.2,0.31,-110.97,-0.18,-0.91,-0.67,-0.0,-0.07,1.03,1000
16:50:25.839,-4.19,0.29,-110.98,-0.73,-1.34,-1.34,-0.01,-0.07,1.03,1000
16:50:25.850,-4.17,0.28,-111.0,-1.4,-2.32,-2.2,-0.01,-0.07,1.03,1000
16:50:25.861,-4.16,0.27,-111.02,-2.26,-2.93,-2.44,-0.0,-0.07,1.03,1000
16:50:25.872,-4.16,0.24,-111.05,-2.74,-3.6,-2.44,-0.0,-0.07,1.03,1000
16:50:25.883,-4.18,0.21,-111.07,-2.68,-3.78,-1.71,-0.0,-0.08,1.02,1000
16:50:25.898,-4.2,0.17,-111.09,-2.13,-3.84,-1.28,-0.0,-0.08,1.03,1000
16:50:25.905,-4.23,0.14,-111.11,-1.34,-2.93,-1.34,0.0,-0.08,1.03,1000
16:50:25.918,-4.25,0.1,-111.12,-0.55,-1.89,-1.1,0.01,-0.08,1.03,1000
16:50:25.927,-4.27,0.07,-111.13,-0.37,-0.37,-0.91,0.0,-0.08,1.03,1000
16:50:25.939,-4.28,0.06,-111.14,-0.49,0.49,-0.67,-0.0,-0.08,1.03,1000
16:50:25.951,-4.28,0.06,-111.15,-0.79,1.65,-0.73,-0.01,-0.07,1.03,1000
16:50:25.962,-4.28,0.09,-111.16,-0.91,2.38,-0.73,-0.01,-0.07,1.03,1000
16:50:25.971,-4.28,0.14,-111.17,-1.16,3.11,-0.67,-0.01,-0.07,1.03,1000
16:50:25.983,-4.27,0.19,-111.17,-1.04,3.41,-0.61,-0.0,-0.07,1.03,1000
16:50:25.994,-4.27,0.24,-111.18,-0.85,3.05,-0.24,-0.01,-0.08,1.03,1000
16:50:26.004,-4.27,0.28,-111.18,-0.73,2.32,-0.06,-0.01,-0.08,1.03,1000
16:50:26.016,-4.29,0.32,-111.18,-0.24,1.28,0.3,-0.01,-0.09,1.03,1000
16:50:26.029,-4.31,0.35,-111.17,0.0,0.49,0.73,-0.0,-0.08,1.03,1000
16:50:26.038,-4.32,0.35,-111.17,0.79,-0.12,0.43,-0.0,-0.08,1.03,1000
16:50:26.048,-4.32,0.34,-111.16,1.28,-0.37,-0.12,-0.01,-0.08,1.03,1000
16:50:26.059,-4.32,0.34,-111.17,1.65,-0.55,-0.91,-0.0,-0.08,1.03,1000
16:50:26.070,-4.3,0.33,-111.18,1.83,-0.67,-1.4,-0.0,-0.08,1.03,1000
16:50:26.081,-4.29,0.31,-111.2,1.71,-0.61,-1.52,0.0,-0.08,1.02,1000
16:50:26.093,-4.27,0.3,-111.22,1.16,-0.55,-1.77,-0.0,-0.08,1.02,1000
16:50:26.103,-4.26,0.28,-111.23,0.24,-0.85,-1.28,-0.0,-0.08,1.02,1000
16:50:26.115,-4.25,0.27,-111.25,-0.06,-0.61,-0.91,-0.01,-0.08,1.02,1000
16:50:26.129,-4.25,0.26,-111.26,-0.12,-0.43,-1.1,-0.0,-0.08,1.02,1000
16:50:26.136,-4.25,0.25,-111.27,-0.37,-0.18,-1.34,0.0,-0.07,1.02,1000
16:50:26.147,-4.25,0.25,-111.29,-0.85,0.06,-1.89,0.0,-0.07,1.02,1000
16:50:26.158,-4.25,0.23,-111.31,-1.46,0.18,-2.2,0.0,-0.07,1.02,1000
16:50:26.172,-4.25,0.22,-111.33,-1.71,0.3,-2.56,0.01,-0.08,1.02,1000
16:50:26.180,-4.27,0.19,-111.37,-2.2,0.43,-2.87,0.0,-0.08,1.02,1000
16:50:26.191,-4.3,0.17,-111.4,-2.56,0.06,-3.11,0.0,-0.08,1.02,1000
16:50:26.202,-4.33,0.16,-111.43,-2.5,0.18,-3.05,-0.0,-0.08,1.03,1000
16:50:26.213,-4.38,0.15,-111.47,-2.13,0.06,-2.99,-0.0,-0.08,1.03,1000
16:50:26.224,-4.41,0.14,-111.49,-1.4,0.06,-2.44,-0.0,-0.08,1.03,1000
16:50:26.236,-4.44,0.14,-111.52,-0.79,0.18,-2.07,-0.01,-0.09,1.03,1000
16:50:26.246,-4.46,0.15,-111.54,0.18,0.24,-1.34,-0.01,-0.08,1.04,1000
16:50:26.257,-4.47,0.16,-111.55,0.3,0.12,-0.61,-0.01,-0.08,1.04,1000
16:50:26.270,-4.47,0.17,-111.55,0.18,0.18,0.37,-0.01,-0.08,1.04,1000
16:50:26.280,-4.47,0.2,-111.55,-0.12,0.43,1.22,-0.02,-0.08,1.04,1000
16:50:26.292,-4.46,0.24,-111.53,0.0,0.49,1.28,-0.02,-0.08,1.04,1000
16:50:26.301,-4.45,0.28,-111.52,0.49,0.91,1.16,-0.01,-0.08,1.04,1000
16:50:26.312,-4.44,0.32,-111.51,0.91,1.34,0.67,-0.0,-0.08,1.04,1000
16:50:26.334,-4.43,0.34,-111.51,1.34,1.4,-0.24,-0.0,-0.08,1.03,1000
16:50:26.334,-4.41,0.35,-111.51,1.34,1.28,-0.73,-0.0,-0.08,1.04,1000
16:50:26.345,-4.39,0.35,-111.52,0.98,1.28,-1.16,0.0,-0.07,1.03,1000
16:50:26.356,-4.36,0.35,-111.54,0.37,0.43,-1.46,-0.01,-0.07,1.03,1000
16:50:26.367,-4.33,0.34,-111.55,-0.3,-0.3,-1.22,-0.01,-0.07,1.03,1000
16:50:26.378,-4.3,0.34,-111.56,-0.98,-1.34,-0.67,-0.01,-0.06,1.03,1000
16:50:26.389,-4.26,0.34,-111.57,-1.77,-1.83,-0.06,-0.02,-0.06,1.03,1000
16:50:26.400,-4.23,0.35,-111.56,-2.07,-2.13,0.67,-0.02,-0.06,1.03,1000
16:50:26.412,-4.2,0.37,-111.56,-2.38,-2.5,0.98,-0.01,-0.07,1.03,1000
16:50:26.422,-4.2,0.37,-111.55,-1.95,-2.62,1.4,-0.01,-0.08,1.03,1000
16:50:26.436,-4.21,0.36,-111.53,-1.59,-2.56,1.77,-0.0,-0.07,1.03,1000
16:50:26.444,-4.21,0.33,-111.51,-1.04,-2.5,1.95,0.0,-0.08,1.02,1000
16:50:26.455,-4.23,0.3,-111.49,-0.73,-2.5,1.89,0.0,-0.08,1.03,1000
16:50:26.466,-4.24,0.26,-111.47,-0.24,-2.8,2.01,-0.0,-0.08,1.02,1000
16:50:26.477,-4.26,0.22,-111.44,-0.3,-3.17,2.01,-0.0,-0.08,1.03,1000
16:50:26.488,-4.28,0.19,-111.42,-0.85,-3.35,1.52,-0.01,-0.08,1.03,1000
16:50:26.499,-4.3,0.17,-111.41,-1.22,-3.29,1.28,-0.01,-0.08,1.03,1000
16:50:26.512,-4.32,0.15,-111.4,-1.65,-3.17,0.37,-0.01,-0.07,1.02,1000
16:50:26.521,-4.34,0.13,-111.4,-2.07,-2.8,-0.06,0.0,-0.08,1.02,1000
16:50:26.533,-4.35,0.11,-111.4,-1.89,-2.2,-0.55,-0.0,-0.08,1.03,1000
16:50:26.543,-4.37,0.1,-111.41,-1.4,-1.71,-0.91,-0.0,-0.08,1.03,1000
16:50:26.554,-4.37,0.08,-111.41,-1.04,-1.1,-0.79,0.0,-0.08,1.03,1000
16:50:26.565,-4.38,0.06,-111.42,-0.67,-0.85,-0.12,0.01,-0.08,1.02,1000
16:50:26.576,-4.37,0.04,-111.42,-0.18,-0.61,0.3,0.01,-0.07,1.03,1000
16:50:26.588,-4.36,0.01,-111.41,0.3,-0.3,1.28,0.0,-0.08,1.02,1000
16:50:26.600,-4.34,0.0,-111.39,0.67,0.43,1.4,-0.0,-0.08,1.02,1000
16:50:26.614,-4.32,0.01,-111.38,0.67,0.98,1.52,-0.01,-0.08,1.02,1000
16:50:26.620,-4.3,0.04,-111.36,0.49,1.4,1.16,-0.01,-0.08,1.03,1000
16:50:26.641,-4.3,0.07,-111.35,-0.06,1.59,0.79,-0.0,-0.08,1.03,1000
16:50:26.644,-4.31,0.09,-111.34,-0.73,1.4,0.55,-0.0,-0.08,1.02,1000
16:50:26.653,-4.33,0.1,-111.34,-1.28,1.16,0.55,0.0,-0.08,1.02,1000
16:50:26.664,-4.37,0.09,-111.34,-1.65,1.04,0.24,0.0,-0.09,1.03,1000
16:50:26.675,-4.41,0.09,-111.34,-2.07,0.79,0.0,0.0,-0.08,1.03,1000
16:50:26.686,-4.45,0.09,-111.34,-2.38,0.67,0.49,0.0,-0.08,1.03,1000
16:50:26.697,-4.49,0.08,-111.33,-2.68,0.49,0.79,-0.0,-0.08,1.03,1000
16:50:26.708,-4.53,0.08,-111.32,-2.38,0.37,1.34,-0.0,-0.08,1.03,1000
16:50:26.720,-4.56,0.08,-111.3,-2.07,0.3,1.52,-0.0,-0.08,1.02,1000
16:50:26.730,-4.59,0.09,-111.29,-1.46,0.49,1.46,-0.01,-0.08,1.02,1000
16:50:26.743,-4.6,0.11,-111.27,-1.04,0.49,1.1,-0.01,-0.08,1.02,1000
16:50:26.752,-4.61,0.12,-111.26,-0.67,0.61,0.61,-0.0,-0.08,1.02,1000
16:50:26.763,-4.6,0.13,-111.26,-0.61,0.73,0.12,-0.0,-0.08,1.02,1000
16:50:26.774,-4.6,0.14,-111.26,-1.04,0.85,0.06,0.0,-0.08,1.03,1000
16:50:26.785,-4.6,0.14,-111.26,-1.4,0.91,-0.43,0.0,-0.09,1.03,1000
16:50:26.796,-4.62,0.13,-111.26,-1.34,0.79,-0.67,0.0,-0.09,1.02,1000
16:50:26.807,-4.65,0.13,-111.28,-0.98,1.4,-1.34,0.0,-0.1,1.02,1000
16:50:26.819,-4.69,0.12,-111.3,-0.18,1.59,-2.5,0.01,-0.1,1.03,1000
16:50:26.831,-4.72,0.12,-111.33,0.43,1.95,-3.35,0.0,-0.1,1.02,1000
16:50:26.840,-4.75,0.11,-111.37,0.85,1.77,-3.84,0.0,-0.08,1.02,1000
16:50:26.851,-4.75,0.11,-111.41,0.73,1.71,-3.78,0.0,-0.08,1.03,1000
16:50:26.862,-4.73,0.11,-111.45,-0.06,1.52,-2.93,-0.0,-0.08,1.02,1000
16:50:26.873,-4.72,0.11,-111.48,-1.4,1.1,-1.83,-0.0,-0.08,1.02,1000
16:50:26.884,-4.72,0.11,-111.5,-2.44,0.98,-1.1,0.0,-0.09,1.02,1000
16:50:26.895,-4.75,0.11,-111.5,-3.35,1.04,-0.37,0.0,-0.09,1.02,1000
16:50:26.906,-4.81,0.11,-111.51,-3.78,1.34,-0.18,-0.0,-0.09,1.03,1000
16:50:26.919,-4.86,0.13,-111.51,-3.29,1.52,-0.24,-0.01,-0.09,1.03,1000
16:50:26.928,-4.91,0.15,-111.51,-2.68,1.71,-0.49,-0.01,-0.09,1.03,1000
16:50:26.943,-4.95,0.19,-111.52,-1.71,1.71,-1.1,-0.01,-0.09,1.04,1000
16:50:26.953,-4.97,0.22,-111.53,-0.24,1.95,-1.46,0.0,-0.1,1.04,1000
16:50:26.961,-4.99,0.23,-111.55,1.04,1.77,-1.71,0.0,-0.1,1.03,1000
16:50:26.972,-5.01,0.24,-111.57,2.13,1.89,-2.13,-0.0,-0.1,1.03,1000
16:50:26.983,-5.01,0.25,-111.59,2.99,1.89,-2.74,-0.0,-0.1,1.03,1000
16:50:26.994,-5.01,0.26,-111.63,3.41,1.89,-3.23,-0.01,-0.09,1.03,1000
16:50:27.005,-4.99,0.28,-111.67,3.48,1.89,-3.9,-0.0,-0.09,1.03,1000
16:50:27.017,-4.97,0.3,-111.72,3.35,1.95,-4.82,-0.0,-0.08,1.03,1000
16:50:27.027,-4.92,0.32,-111.77,2.68,1.95,-5.0,-0.0,-0.08,1.02,1000
16:50:27.051,-4.88,0.33,-111.82,1.77,1.46,-4.94,-0.0,-0.07,1.03,1000
16:50:27.051,-4.82,0.33,-111.87,0.24,0.55,-3.96,-0.0,-0.06,1.02,1000
16:50:27.060,-4.76,0.32,-111.91,-1.71,-0.37,-2.87,-0.01,-0.06,1.02,1000
16:50:27.071,-4.72,0.3,-111.94,-3.29,-1.34,-1.77,-0.01,-0.07,1.02,1000
16:50:27.082,-4.69,0.29,-111.95,-4.45,-2.2,-0.49,-0.01,-0.07,1.02,1000
16:50:27.093,-4.69,0.29,-111.95,-4.82,-2.74,0.3,-0.01,-0.08,1.01,1000
16:50:27.104,-4.72,0.28,-111.95,-4.21,-2.5,0.79,-0.01,-0.09,1.02,1000
16:50:27.117,-4.76,0.27,-111.94,-2.74,-2.2,0.55,-0.0,-0.09,1.02,1000
16:50:27.126,-4.8,0.26,-111.94,-1.1,-1.1,-0.24,-0.01,-0.1,1.01,1000
16:50:27.137,-4.82,0.27,-111.95,0.49,0.12,-1.4,-0.01,-0.09,1.02,1000
16:50:27.154,-4.82,0.27,-111.97,1.77,1.22,-2.56,0.0,-0.08,1.02,1000
16:50:27.163,-4.79,0.29,-112.0,2.8,2.38,-3.29,-0.0,-0.07,1.02,1000
16:50:27.172,-4.72,0.31,-112.04,2.44,2.87,-3.41,-0.01,-0.07,1.02,1000
16:50:27.181,-4.65,0.35,-112.07,1.16,3.35,-2.87,-0.01,-0.06,1.02,1000
16:50:27.192,-4.57,0.4,-112.1,-0.79,3.54,-2.32,-0.02,-0.07,1.02,1000
16:50:27.203,-4.53,0.46,-112.13,-3.05,3.17,-1.89,-0.02,-0.07,1.03,1000
16:50:27.214,-4.51,0.53,-112.15,-4.88,2.99,-1.34,-0.02,-0.07,1.03,1000
16:50:27.229,-4.52,0.6,-112.16,-5.91,2.68,-1.04,-0.02,-0.08,1.02,1000
16:50:27.236,-4.56,0.67,-112.17,-6.65,2.74,-0.61,-0.02,-0.08,1.02,1000
16:50:27.247,-4.61,0.72,-112.17,-6.59,2.68,-0.24,-0.02,-0.08,1.02,1000
16:50:27.260,-4.66,0.79,-112.18,-5.98,2.5,-0.79,-0.03,-0.08,1.03,1000
16:50:27.269,-4.7,0.86,-112.19,-4.88,2.2,-1.34,-0.02,-0.08,1.04,1000
16:50:27.280,-4.72,0.91,-112.21,-3.35,2.2,-2.07,-0.02,-0.09,1.03,1000
16:50:27.295,-4.74,0.94,-112.23,-1.71,1.71,-3.11,-0.02,-0.09,1.03,1000
16:50:27.302,-4.75,0.97,-112.27,-0.3,1.65,-3.54,-0.02,-0.09,1.03,1000
16:50:27.316,-4.77,0.98,-112.31,0.3,1.59,-3.78,-0.01,-0.09,1.03,1000
16:50:27.331,-4.79,0.99,-112.36,1.04,1.4,-4.27,-0.02,-0.1,1.03,1000
16:50:27.335,-4.81,1.01,-112.4,1.52,0.91,-4.21,-0.02,-0.09,1.04,1000
16:50:27.355,-4.82,1.01,-112.45,1.95,0.37,-4.27,-0.02,-0.09,1.04,1000
16:50:27.361,-4.79,1.01,-112.5,2.07,-0.43,-4.27,-0.02,-0.08,1.04,1000
16:50:27.373,-4.75,1.01,-112.54,1.89,-1.34,-3.48,-0.02,-0.07,1.04,1000
16:50:27.381,-4.69,1.01,-112.57,0.98,-2.32,-1.71,-0.03,-0.07,1.03,1000
16:50:27.390,-4.63,1.0,-112.58,0.67,-2.93,0.18,-0.03,-0.08,1.02,1000
16:50:27.406,-4.59,1.0,-112.57,0.49,-3.35,2.26,-0.02,-0.09,1.01,1000
16:50:27.412,-4.59,0.99,-112.54,0.67,-3.29,3.23,-0.01,-0.1,1.01,1000
16:50:27.439,-4.61,0.96,-112.51,0.91,-2.26,2.74,0.0,-0.1,1.01,1000
16:50:27.439,-4.64,0.92,-112.48,1.34,-0.79,1.71,0.01,-0.1,1.01,1000
16:50:27.445,-4.67,0.87,-112.46,1.28,1.22,0.67,0.0,-0.09,1.01,1000
16:50:27.465,-4.7,0.83,-112.46,1.1,2.62,0.3,-0.0,-0.09,1.02,1000
16:50:27.467,-4.72,0.83,-112.46,0.55,4.09,0.3,-0.02,-0.08,1.01,1000
16:50:27.478,-4.72,0.86,-112.45,-0.43,4.45,0.24,-0.02,-0.08,1.02,1000
16:50:27.489,-4.71,0.92,-112.45,-1.59,4.7,0.67,-0.02,-0.08,1.02,1000
16:50:27.500,-4.7,0.99,-112.44,-3.23,3.84,1.59,-0.02,-0.07,1.03,1000
16:50:27.511,-4.68,1.04,-112.41,-5.0,2.68,2.44,-0.03,-0.07,1.03,1000
16:50:27.522,-4.67,1.09,-112.39,-6.71,0.85,3.17,-0.03,-0.07,1.04,1000
16:50:27.536,-4.69,1.13,-112.35,-8.17,-1.46,3.84,-0.03,-0.08,1.04,1000
16:50:27.544,-4.73,1.15,-112.31,-8.6,-3.17,4.15,-0.03,-0.09,1.04,1000
16:50:27.558,-4.79,1.15,-112.26,-8.23,-4.82,4.63,-0.03,-0.09,1.03,1000
16:50:27.567,-4.87,1.15,-112.2,-7.32,-5.98,5.0,-0.03,-0.09,1.04,1000
16:50:27.577,-4.95,1.14,-112.15,-5.73,-5.85,4.57,-0.04,-0.11,1.03,1000
16:50:27.588,-5.04,1.14,-112.1,-3.05,-5.24,3.6,-0.03,-0.1,1.03,1000
16:50:27.600,-5.09,1.13,-112.07,-0.06,-3.84,1.71,-0.03,-0.11,1.04,1000
16:50:27.610,-5.13,1.14,-112.06,2.13,-2.01,0.12,-0.03,-0.1,1.04,1000
16:50:27.626,-5.12,1.16,-112.06,4.45,-0.12,-0.67,-0.02,-0.1,1.03,1000
16:50:27.632,-5.08,1.18,-112.07,5.98,1.1,-0.98,-0.01,-0.09,1.03,1000
16:50:27.643,-5.02,1.18,-112.08,6.83,1.77,-0.55,-0.01,-0.09,1.03,1000
16:50:27.665,-4.95,1.18,-112.08,7.01,2.5,0.18,-0.01,-0.09,1.03,1000
16:50:27.667,-4.87,1.18,-112.08,6.59,2.99,0.91,-0.01,-0.09,1.02,1000
16:50:27.676,-4.81,1.19,-112.06,5.49,3.23,2.26,-0.01,-0.09,1.01,1000
16:50:27.687,-4.77,1.19,-112.03,4.27,3.23,3.11,-0.01,-0.09,1.02,1000
16:50:27.698,-4.75,1.18,-112.0,3.23,3.35,3.41,-0.01,-0.1,1.01,1000
16:50:27.709,-4.76,1.18,-111.96,2.5,2.99,3.6,-0.01,-0.1,1.01,1000
16:50:27.720,-4.79,1.17,-111.92,2.07,3.23,3.05,-0.0,-0.1,1.02,1000
16:50:27.731,-4.82,1.15,-111.89,1.83,3.48,2.07,-0.0,-0.1,1.01,1000
16:50:27.742,-4.84,1.13,-111.88,1.46,3.41,1.16,-0.0,-0.1,1.02,1000
16:50:27.753,-4.87,1.1,-111.87,0.98,3.35,0.55,-0.0,-0.09,1.02,1000
16:50:27.768,-4.9,1.07,-111.87,0.18,3.23,-0.3,-0.01,-0.09,1.02,1000
16:50:27.775,-4.92,1.07,-111.87,-1.16,3.48,-0.55,-0.01,-0.09,1.02,1000
16:50:27.786,-4.94,1.07,-111.87,-2.32,2.87,0.0,-0.02,-0.09,1.03,1000
16:50:27.797,-4.98,1.07,-111.87,-3.48,2.01,0.37,-0.02,-0.09,1.03,1000
16:50:27.808,-5.03,1.08,-111.86,-3.9,1.16,0.79,-0.02,-0.1,1.03,1000
16:50:27.819,-5.09,1.08,-111.86,-3.96,0.61,0.73,-0.02,-0.1,1.03,1000
16:50:27.830,-5.16,1.09,-111.85,-3.41,-0.12,0.79,-0.02,-0.1,1.03,1000
16:50:27.843,-5.23,1.1,-111.84,-2.62,-0.91,0.67,-0.03,-0.11,1.04,1000
16:50:27.852,-5.29,1.11,-111.84,-1.89,-1.52,0.61,-0.03,-0.1,1.03,1000
16:50:27.865,-5.33,1.12,-111.83,-0.79,-2.32,0.37,-0.03,-0.1,1.03,1000
16:50:27.874,-5.35,1.12,-111.83,0.12,-2.93,0.24,-0.02,-0.1,1.03,1000
16:50:27.885,-5.36,1.09,-111.83,0.61,-3.17,-0.61,-0.02,-0.09,1.03,1000
16:50:27.896,-5.34,1.06,-111.84,0.79,-3.66,-1.16,-0.01,-0.09,1.03,1000
16:50:27.908,-5.3,1.0,-111.85,1.04,-3.96,-1.46,-0.01,-0.08,1.02,1000
16:50:27.918,-5.27,0.94,-111.87,0.61,-4.15,-1.89,-0.01,-0.09,1.02,1000
16:50:27.930,-5.24,0.89,-111.89,0.24,-4.02,-1.65,-0.02,-0.09,1.01,1000
16:50:27.943,-5.22,0.85,-111.91,-0.12,-3.84,-1.95,-0.02,-0.09,1.02,1000
16:50:27.951,-5.21,0.82,-111.93,-0.37,-2.87,-2.01,-0.01,-0.09,1.02,1000
16:50:27.972,-5.21,0.79,-111.95,-0.73,-2.2,-2.01,-0.02,-0.08,1.01,1000
16:50:27.973,-5.2,0.78,-111.98,-1.46,-1.65,-2.07,-0.02,-0.08,1.02,1000
16:50:27.984,-5.18,0.77,-112.0,-2.74,-1.4,-2.07,-0.01,-0.08,1.01,1000
16:50:27.995,-5.18,0.76,-112.02,-4.09,-1.22,-1.89,-0.02,-0.08,1.01,1000
16:50:28.006,-5.19,0.75,-112.04,-4.82,-1.22,-1.95,-0.01,-0.08,1.01,1000
16:50:28.017,-5.21,0.74,-112.06,-5.37,-1.1,-2.13,-0.01,-0.09,1.02,1000
16:50:28.028,-5.23,0.72,-112.09,-5.0,-1.04,-2.44,-0.02,-0.09,1.02,1000
16:50:28.048,-5.26,0.74,-112.12,-4.21,-0.43,-3.23,-0.02,-0.11,1.02,1000
16:50:28.051,-5.31,0.75,-112.16,-2.56,0.37,-4.39,-0.01,-0.1,1.03,1000
16:50:28.061,-5.33,0.76,-112.21,-1.16,0.98,-4.82,-0.02,-0.09,1.03,1000
16:50:28.078,-5.33,0.78,-112.26,-0.12,1.28,-5.18,-0.02,-0.1,1.03,1000
16:50:28.083,-5.32,0.81,-112.32,0.55,1.16,-5.18,-0.01,-0.09,1.04,1000
16:50:28.094,-5.29,0.83,-112.38,1.46,1.4,-5.12,-0.02,-0.09,1.04,1000
16:50:28.105,-5.24,0.87,-112.43,1.52,1.04,-4.88,-0.03,-0.08,1.04,1000
16:50:28.116,-5.19,0.92,-112.48,1.4,0.55,-4.94,-0.03,-0.08,1.03,1000
16:50:28.127,-5.13,0.96,-112.53,1.16,-0.61,-4.39,-0.03,-0.08,1.04,1000
16:50:28.138,-5.08,0.99,-112.58,0.67,-1.46,-4.76,-0.02,-0.08,1.04,1000
16:50:28.150,-5.04,0.99,-112.65,0.67,-1.95,-5.85,-0.02,-0.09,1.04,1000
16:50:28.160,-5.0,1.0,-112.72,1.22,-2.13,-6.83,-0.03,-0.09,1.03,1000
16:50:28.171,-4.98,1.02,-112.79,1.52,-2.01,-8.23,-0.03,-0.09,1.04,1000
16:50:28.182,-4.95,1.02,-112.88,1.52,-2.13,-9.15,-0.02,-0.09,1.03,1000
16:50:28.193,-4.92,1.0,-112.99,1.59,-2.26,-9.09,-0.01,-0.09,1.03,1000
16:50:28.204,-4.91,0.97,-113.09,1.59,-2.56,-8.54,-0.02,-0.09,1.02,1000
16:50:28.215,-4.93,0.95,-113.18,1.04,-3.78,-6.83,-0.03,-0.11,1.03,1000
16:50:28.226,-4.95,0.94,-113.24,1.46,-4.94,-5.06,-0.01,-0.1,1.04,1000
16:50:28.237,-4.96,0.88,-113.29,2.26,-4.76,-3.48,0.0,-0.1,1.05,1000
16:50:28.251,-4.95,0.8,-113.32,3.35,-3.96,-2.56,-0.0,-0.1,1.04,1000
16:50:28.263,-4.95,0.74,-113.35,4.33,-3.29,-2.26,-0.01,-0.1,1.04,1000
16:50:28.285,-4.91,0.7,-113.37,4.39,-2.38,-1.83,-0.01,-0.09,1.03,1000
16:50:28.285,-4.88,0.69,-113.39,4.21,-1.22,-1.65,-0.02,-0.09,1.02,1000
16:50:28.292,-4.85,0.7,-113.41,3.66,0.49,-1.4,-0.02,-0.09,1.02,1000
16:50:28.303,-4.82,0.72,-113.42,2.68,1.89,-0.67,-0.01,-0.08,1.02,1000
16:50:28.314,-4.79,0.75,-113.42,1.34,3.29,0.49,-0.01,-0.08,1.02,1000
16:50:28.325,-4.78,0.78,-113.41,0.18,4.7,1.4,-0.01,-0.08,1.02,1000
16:50:28.337,-4.78,0.82,-113.39,-1.04,5.91,2.26,-0.0,-0.08,1.02,1000
16:50:28.348,-4.78,0.85,-113.36,-2.01,7.26,2.68,-0.01,-0.08,1.01,1000
16:50:28.358,-4.8,0.91,-113.34,-2.44,8.11,2.32,-0.01,-0.09,1.01,1000
16:50:28.371,-4.84,0.98,-113.31,-2.93,8.29,1.71,-0.02,-0.09,1.01,1000
16:50:28.380,-4.88,1.06,-113.29,-3.29,7.8,1.46,-0.02,-0.09,1.02,1000
16:50:28.391,-4.93,1.15,-113.28,-3.48,7.13,1.34,-0.02,-0.09,1.03,1000
16:50:28.402,-4.96,1.22,-113.27,-3.17,6.46,1.1,-0.03,-0.09,1.03,1000
16:50:28.413,-4.98,1.31,-113.26,-2.99,5.43,0.73,-0.04,-0.09,1.02,1000
16:50:28.424,-5.01,1.4,-113.25,-1.65,4.21,0.55,-0.03,-0.09,1.02,1000
16:50:28.437,-5.03,1.46,-113.24,-0.43,2.93,0.18,-0.03,-0.09,1.02,1000
16:50:28.446,-5.03,1.5,-113.24,0.67,1.52,-0.06,-0.03,-0.09,1.02,1000
16:50:28.463,-5.01,1.52,-113.24,1.65,-0.49,-0.12,-0.03,-0.09,1.02,1000
16:50:28.468,-4.99,1.51,-113.24,2.56,-2.44,0.24,-0.02,-0.08,1.02,1000
16:50:28.489,-4.94,1.47,-113.24,3.29,-3.48,0.3,-0.02,-0.09,1.04,1000
16:50:28.490,-4.89,1.42,-113.24,3.41,-4.33,0.0,-0.03,-0.09,1.03,1000
16:50:28.503,-4.85,1.38,-113.24,2.8,-4.51,-0.12,-0.03,-0.08,1.03,1000
16:50:28.514,-4.81,1.34,-113.24,1.83,-4.7,-0.37,-0.03,-0.08,1.03,1000
16:50:28.523,-4.78,1.32,-113.24,-0.3,-4.94,-0.49,-0.03,-0.05,1.05,1000
16:50:28.571,-4.75,1.28,-113.25,-2.32,-5.79,0.0,-0.03,-0.1,1.03,1000
16:50:28.572,-4.76,1.24,-113.25,-2.56,-6.83,0.24,-0.02,-0.08,1.03,1000
16:50:28.572,-4.81,1.2,-113.24,-3.9,-7.44,-0.06,-0.03,-0.1,1.04,1000
16:50:28.572,-4.86,1.14,-113.25,-4.27,-8.11,-0.37,-0.02,-0.1,1.04,1000
16:50:28.579,-4.9,1.07,-113.25,-2.99,-8.72,-0.85,-0.02,-0.1,1.04,1000
16:50:28.590,-4.94,0.99,-113.27,-1.59,-9.27,-1.89,-0.02,-0.09,1.03,1000
16:50:28.600,-4.97,0.89,-113.29,-0.24,-10.06,-2.56,-0.01,-0.09,1.03,1000
16:50:28.611,-4.97,0.78,-113.32,0.73,-10.37,-2.56,-0.0,-0.08,1.03,1000
16:50:28.624,-4.96,0.64,-113.35,1.46,-10.43,-2.62,0.0,-0.08,1.02,1000
16:50:28.633,-4.93,0.5,-113.38,1.4,-10.61,-2.2,-0.01,-0.08,1.02,1000
16:50:28.651,-4.89,0.38,-113.4,0.61,-10.49,-1.65,-0.01,-0.07,1.03,1000
16:50:28.664,-4.86,0.27,-113.42,0.61,-9.76,-0.85,-0.0,-0.09,1.01,1000
16:50:28.668,-4.83,0.19,-113.42,0.24,-8.41,-0.55,-0.01,-0.08,1.01,1000
16:50:28.686,-4.8,0.11,-113.43,0.12,-6.77,-0.55,0.0,-0.08,1.0,1000
16:50:28.688,-4.78,0.04,-113.43,0.3,-4.45,-0.18,0.0,-0.08,0.99,1000
16:50:28.701,-4.76,-0.02,-113.43,0.43,-2.5,0.06,0.01,-0.08,1.0,1000
16:50:28.710,-4.74,-0.07,-113.43,0.24,0.67,0.24,0.02,-0.08,1.0,1000
16:50:28.721,-4.72,-0.11,-113.43,-0.55,3.72,0.18,0.02,-0.07,1.0,1000
16:50:28.732,-4.7,-0.1,-113.43,-1.28,6.59,0.12,0.01,-0.08,1.0,1000
16:50:28.744,-4.68,-0.07,-113.43,-2.2,8.9,0.49,0.0,-0.07,1.01,1000
16:50:28.756,-4.67,0.01,-113.43,-3.48,10.85,0.43,-0.0,-0.08,1.01,1000
16:50:28.765,-4.68,0.12,-113.42,-4.15,12.26,1.04,0.0,-0.08,1.01,1000
16:50:28.777,-4.7,0.24,-113.41,-4.27,13.35,0.98,-0.0,-0.09,1.01,1000
16:50:28.793,-4.74,0.38,-113.4,-4.02,13.9,1.22,-0.0,-0.09,1.01,1000
16:50:28.800,-4.78,0.52,-113.38,-3.66,14.27,1.22,-0.0,-0.08,1.02,1000
16:50:28.811,-4.81,0.65,-113.37,-3.54,14.51,1.65,-0.01,-0.08,1.02,1000
16:50:28.822,-4.85,0.82,-113.35,-3.66,14.39,1.71,-0.02,-0.1,1.02,1000
16:50:28.831,-4.89,0.96,-113.33,-3.96,14.51,1.77,-0.02,-0.08,1.03,1000
16:50:28.842,-4.92,1.1,-113.31,-5.24,14.09,1.71,-0.02,-0.08,1.03,1000
16:50:28.853,-4.96,1.26,-113.29,-7.5,12.8,1.4,-0.03,-0.1,1.03,1000
16:50:28.868,-5.05,1.4,-113.28,-7.5,11.77,0.79,-0.03,-0.13,1.03,1000
16:50:28.877,-5.19,1.53,-113.28,-5.98,11.22,-1.22,-0.02,-0.14,1.04,1000
16:50:28.890,-5.35,1.65,-113.3,-4.88,10.43,-2.99,-0.03,-0.12,1.04,1000
16:50:28.908,-5.48,1.75,-113.34,-4.27,8.66,-4.09,-0.04,-0.11,1.05,1000
16:50:28.909,-5.59,1.86,-113.39,-3.66,5.79,-4.21,-0.04,-0.11,1.04,1000
16:50:28.919,-5.66,1.94,-113.43,-2.68,3.41,-3.96,-0.04,-0.11,1.05,1000
16:50:28.932,-5.71,1.99,-113.47,-1.22,0.98,-3.23,-0.04,-0.11,1.04,1000
16:50:28.941,-5.72,2.01,-113.5,0.24,-0.91,-2.5,-0.04,-0.1,1.04,1000
16:50:28.954,-5.71,2.02,-113.53,1.83,-2.74,-1.89,-0.04,-0.1,1.04,1000
16:50:28.964,-5.67,2.01,-113.55,3.48,-3.78,-1.4,-0.04,-0.09,1.04,1000
16:50:28.974,-5.59,1.98,-113.56,4.51,-4.63,-1.16,-0.03,-0.1,1.03,1000
16:50:28.988,-5.51,1.93,-113.57,5.18,-5.73,-0.3,-0.03,-0.1,1.02,1000
16:50:28.997,-5.45,1.87,-113.58,5.12,-6.52,0.24,-0.03,-0.09,1.03,1000
16:50:29.008,-5.37,1.8,-113.58,4.51,-6.95,0.24,-0.03,-0.09,1.03,1000
16:50:29.018,-5.31,1.73,-113.58,3.6,-7.5,-0.18,-0.04,-0.1,1.02,1000
16:50:29.029,-5.27,1.66,-113.58,2.8,-8.29,-0.85,-0.03,-0.1,1.02,1000
16:50:29.040,-5.24,1.57,-113.59,2.26,-7.62,-1.59,-0.02,-0.1,1.02,1000
16:50:29.051,-5.23,1.5,-113.61,1.59,-6.65,-1.95,-0.03,-0.1,1.01,1000
16:50:29.062,-5.22,1.43,-113.63,1.16,-5.79,-2.32,-0.03,-0.09,1.0,1000
16:50:29.075,-5.22,1.39,-113.66,0.24,-4.51,-2.38,-0.02,-0.09,1.01,1000
16:50:29.084,-5.2,1.35,-113.68,-0.67,-2.56,-2.01,-0.02,-0.08,1.01,1000
16:50:29.098,-5.2,1.32,-113.7,-1.65,-0.73,-1.77,-0.02,-0.09,1.01,1000
16:50:29.106,-5.2,1.32,-113.72,-3.11,0.91,-1.77,-0.02,-0.08,1.01,1000
16:50:29.117,-5.21,1.33,-113.74,-4.39,2.2,-1.46,-0.02,-0.09,1.01,1000
16:50:29.128,-5.23,1.36,-113.75,-5.67,3.05,-1.04,-0.02,-0.08,1.02,1000
16:50:29.141,-5.26,1.39,-113.76,-6.71,3.78,-0.43,-0.02,-0.09,1.02,1000
16:50:29.150,-5.31,1.43,-113.76,-7.38,3.84,0.37,-0.03,-0.09,1.02,1000
16:50:29.161,-5.36,1.48,-113.76,-7.38,4.15,1.34,-0.03,-0.1,1.03,1000
16:50:29.174,-5.43,1.54,-113.74,-7.32,4.15,2.32,-0.03,-0.1,1.03,1000
16:50:29.183,-5.5,1.6,-113.7,-6.89,3.78,3.17,-0.03,-0.09,1.02,1000
16:50:29.198,-5.56,1.65,-113.67,-5.85,3.48,3.35,-0.03,-0.11,1.03,1000
16:50:29.205,-5.62,1.7,-113.63,-3.05,3.11,2.93,-0.03,-0.11,1.04,1000
16:50:29.216,-5.65,1.74,-113.6,-0.18,2.5,1.83,-0.04,-0.1,1.04,1000
16:50:29.227,-5.63,1.77,-113.59,2.01,1.46,0.55,-0.04,-0.1,1.04,1000
16:50:29.238,-5.59,1.81,-113.59,4.51,0.49,-0.73,-0.04,-0.1,1.04,1000
16:50:29.249,-5.52,1.82,-113.6,5.79,-1.22,-1.16,-0.04,-0.09,1.05,1000
16:50:29.261,-5.42,1.82,-113.61,5.61,-2.8,-1.1,-0.04,-0.09,1.04,1000
16:50:29.277,-5.34,1.8,-113.62,5.24,-4.27,-0.79,-0.04,-0.09,1.03,1000
16:50:29.282,-5.27,1.78,-113.63,4.88,-5.55,-0.37,-0.03,-0.1,1.04,1000
16:50:29.305,-5.21,1.73,-113.63,4.33,-6.1,-0.43,-0.03,-0.1,1.03,1000
16:50:29.305,-5.17,1.67,-113.64,3.66,-5.98,-1.28,-0.03,-0.1,1.02,1000
16:50:29.318,-5.15,1.62,-113.66,3.11,-5.3,-2.07,-0.02,-0.1,1.02,1000
16:50:29.326,-5.15,1.57,-113.68,2.56,-4.51,-2.8,-0.02,-0.1,1.02,1000
16:50:29.337,-5.16,1.51,-113.72,2.01,-3.72,-3.6,-0.02,-0.1,1.01,1000
16:50:29.348,-5.15,1.44,-113.76,1.52,-3.17,-3.72,-0.01,-0.09,1.02,1000
16:50:29.359,-5.13,1.35,-113.8,0.79,-2.44,-3.41,-0.0,-0.08,1.01,1000
16:50:29.371,-5.1,1.26,-113.83,0.61,-1.77,-2.8,-0.0,-0.08,1.01,1000
16:50:29.382,-5.08,1.2,-113.86,-0.37,-0.98,-2.01,-0.02,-0.09,1.01,1000
16:50:29.392,-5.09,1.16,-113.88,-1.16,-0.3,-1.4,-0.03,-0.1,1.01,1000
16:50:29.408,-5.13,1.16,-113.89,-2.44,0.3,-1.34,-0.03,-0.1,1.02,1000
16:50:29.414,-5.19,1.19,-113.91,-3.17,1.16,-1.46,-0.03,-0.1,1.02,1000
16:50:29.437,-5.24,1.21,-113.92,-3.48,1.28,-1.83,-0.02,-0.1,1.02,1000
16:50:29.447,-5.3,1.22,-113.94,-3.11,1.52,-1.59,-0.02,-0.1,1.03,1000
16:50:29.455,-5.35,1.22,-113.96,-2.32,2.01,-1.52,-0.01,-0.1,1.03,1000
16:50:29.458,-5.39,1.2,-113.97,-1.04,1.77,-1.22,-0.01,-0.11,1.03,1000
16:50:29.469,-5.41,1.19,-113.99,0.06,1.46,-1.22,-0.01,-0.11,1.04,1000
16:50:29.480,-5.43,1.18,-114.0,1.04,0.49,-0.91,-0.02,-0.1,1.04,1000
16:50:29.491,-5.44,1.17,-114.01,1.46,-0.12,-0.67,-0.03,-0.11,1.04,1000
16:50:29.503,-5.45,1.17,-114.01,1.83,-0.85,-0.12,-0.03,-0.1,1.04,1000
16:50:29.513,-5.44,1.18,-114.01,1.95,-1.77,0.55,-0.03,-0.1,1.03,1000
16:50:29.524,-5.43,1.19,-114.0,2.07,-2.56,1.65,-0.03,-0.09,1.03,1000
16:50:29.535,-5.41,1.19,-113.98,1.89,-3.29,2.62,-0.02,-0.09,1.03,1000
16:50:29.546,-5.38,1.16,-113.95,2.13,-3.84,3.41,-0.02,-0.1,1.02,1000
16:50:29.557,-5.36,1.12,-113.91,2.32,-3.6,3.54,-0.02,-0.1,1.02,1000
16:50:29.568,-5.34,1.08,-113.87,2.38,-2.99,3.35,-0.02,-0.09,1.02,1000
16:50:29.582,-5.32,1.04,-113.84,2.2,-2.5,2.07,-0.01,-0.1,1.02,1000
16:50:29.620,-5.3,1.02,-113.82,1.77,-2.01,1.34,-0.02,-0.09,1.02,1000
16:50:29.620,-5.28,0.99,-113.81,0.91,-1.46,0.37,-0.01,-0.09,1.02,1000
16:50:29.620,-5.25,0.96,-113.81,-0.06,-1.16,-0.24,-0.01,-0.09,1.01,1000
16:50:29.641,-5.22,0.93,-113.82,-1.16,-0.67,-0.79,-0.01,-0.08,1.02,1000
16:50:29.643,-5.2,0.91,-113.83,-2.32,-0.49,-1.46,-0.02,-0.08,1.02,1000
16:50:29.645,-5.19,0.91,-113.85,-3.66,-0.12,-1.95,-0.02,-0.09,1.02,1000
16:50:29.656,-5.2,0.93,-113.87,-4.21,-0.18,-1.95,-0.02,-0.09,1.02,1000
16:50:29.673,-5.22,0.95,-113.9,-4.33,0.12,-2.38,-0.03,-0.09,1.02,1000
16:50:29.679,-5.25,0.99,-113.92,-3.84,0.12,-2.68,-0.03,-0.09,1.03,1000
16:50:29.689,-5.28,1.02,-113.95,-2.74,0.18,-2.99,-0.03,-0.1,1.03,1000
16:50:29.700,-5.3,1.05,-113.99,-1.59,0.0,-3.72,-0.03,-0.1,1.03,1000
16:50:29.715,-5.31,1.07,-114.04,-0.18,-0.12,-4.27,-0.02,-0.1,1.03,1000
16:50:29.722,-5.31,1.08,-114.09,1.04,-0.12,-4.7,-0.02,-0.09,1.03,1000
16:50:29.733,-5.29,1.07,-114.14,2.2,-0.24,-4.57,-0.02,-0.09,1.03,1000
16:50:29.744,-5.26,1.07,-114.19,2.56,-0.55,-4.21,-0.02,-0.09,1.02,1000
16:50:29.755,-5.22,1.07,-114.23,2.87,-0.79,-3.48,-0.02,-0.09,1.03,1000
16:50:29.766,-5.19,1.07,-114.26,2.93,-0.85,-2.74,-0.02,-0.09,1.02,1000
16:50:29.779,-5.15,1.07,-114.29,2.99,-0.91,-1.77,-0.02,-0.09,1.02,1000
16:50:29.789,-5.11,1.07,-114.31,2.56,-1.1,-1.28,-0.02,-0.1,1.03,1000
16:50:29.799,-5.09,1.08,-114.32,2.38,-0.85,-0.91,-0.02,-0.09,1.02,1000
16:50:29.813,-5.06,1.08,-114.33,1.77,-0.98,-0.3,-0.02,-0.09,1.02,1000
16:50:29.821,-5.05,1.08,-114.33,1.65,-0.79,0.0,-0.01,-0.09,1.02,1000
16:50:29.832,-5.04,1.06,-114.32,1.22,-0.3,0.37,-0.01,-0.09,1.02,1000
16:50:29.845,-5.04,1.03,-114.32,0.79,0.24,0.37,-0.01,-0.1,1.02,1000
16:50:29.855,-5.04,1.0,-114.32,0.49,0.79,0.06,-0.01,-0.1,1.02,1000
16:50:29.866,-5.06,0.99,-114.32,0.37,1.04,-0.37,-0.01,-0.1,1.02,1000
16:50:29.876,-5.09,0.99,-114.33,0.43,1.77,-1.28,-0.02,-0.1,1.03,1000
16:50:29.889,-5.12,1.0,-114.35,0.67,2.2,-1.95,-0.03,-0.1,1.02,1000
16:50:29.899,-5.14,1.04,-114.37,0.85,2.38,-1.95,-0.03,-0.09,1.02,1000
16:50:29.915,-5.14,1.09,-114.39,1.34,2.8,-2.01,-0.02,-0.09,1.02,1000
16:50:29.921,-5.13,1.15,-114.42,1.77,3.29,-2.01,-0.02,-0.08,1.02,1000
16:50:29.931,-5.09,1.2,-114.43,1.59,3.35,-1.83,-0.02,-0.07,1.02,1000
16:50:29.943,-5.03,1.24,-114.45,0.85,2.99,-1.28,-0.02,-0.07,1.03,1000
16:50:29.953,-4.96,1.27,-114.46,-0.43,2.5,-0.3,-0.02,-0.07,1.03,1000
16:50:29.964,-4.92,1.3,-114.46,-2.26,1.59,0.67,-0.02,-0.08,1.03,1000
16:50:29.975,-4.91,1.31,-114.45,-4.09,0.3,1.89,-0.03,-0.09,1.03,1000
16:50:29.987,-4.94,1.32,-114.42,-5.18,-0.79,2.44,-0.02,-0.1,1.03,1000
16:50:29.997,-5.0,1.31,-114.39,-5.79,-1.95,2.44,-0.03,-0.1,1.03,1000
16:50:30.021,-5.09,1.3,-114.37,-5.67,-3.11,2.26,-0.03,-0.1,1.04,1000
16:50:30.021,-5.17,1.28,-114.35,-5.12,-4.21,1.4,-0.03,-0.11,1.04,1000
16:50:30.030,-5.25,1.25,-114.34,-3.66,-5.43,0.12,-0.04,-0.11,1.03,1000
16:50:30.041,-5.32,1.24,-114.34,-1.77,-6.28,-0.49,-0.03,-0.1,1.04,1000
16:50:30.052,-5.34,1.21,-114.35,0.12,-7.01,-1.04,-0.03,-0.1,1.04,1000
16:50:30.063,-5.34,1.17,-114.36,1.65,-7.2,-1.22,-0.02,-0.1,1.03,1000
16:50:30.074,-5.32,1.11,-114.37,2.87,-6.89,-0.91,-0.02,-0.1,1.03,1000
16:50:30.086,-5.28,1.05,-114.38,3.48,-6.1,-0.55,-0.02,-0.09,1.02,1000
16:50:30.096,-5.23,1.0,-114.39,3.72,-5.18,-0.12,-0.01,-0.09,1.02,1000
16:50:30.107,-5.18,0.95,-114.39,3.54,-3.96,0.18,-0.02,-0.09,1.02,1000
16:50:30.124,-5.13,0.92,-114.39,2.68,-2.99,0.67,-0.02,-0.09,1.02,1000
16:50:30.129,-5.09,0.9,-114.38,1.65,-1.95,1.16,-0.02,-0.08,1.02,1000
16:50:30.140,-5.05,0.89,-114.36,0.67,-0.49,1.59,-0.02,-0.08,1.01,1000
16:50:30.151,-5.03,0.9,-114.34,-0.3,0.49,2.07,-0.02,-0.08,1.02,1000
16:50:30.162,-5.02,0.91,-114.32,-1.1,1.28,2.44,-0.01,-0.08,1.01,1000
16:50:30.173,-5.02,0.92,-114.29,-1.46,1.83,2.62,-0.01,-0.09,1.01,1000
16:50:30.184,-5.02,0.93,-114.26,-1.52,2.38,2.38,-0.01,-0.09,1.02,1000
16:50:30.198,-5.03,0.93,-114.24,-1.04,2.01,2.44,-0.01,-0.09,1.02,1000
16:50:30.208,-5.03,0.93,-114.21,-0.73,1.71,2.44,-0.01,-0.09,1.02,1000
16:50:30.219,-5.03,0.93,-114.19,-0.67,1.1,1.95,-0.02,-0.09,1.02,1000
16:50:30.228,-5.04,0.93,-114.17,-0.67,0.49,1.59,-0.01,-0.09,1.02,1000
16:50:30.239,-5.05,0.93,-114.15,-0.37,0.06,1.28,-0.02,-0.09,1.02,1000
16:50:30.250,-5.07,0.92,-114.14,0.12,-0.06,0.67,-0.01,-0.1,1.02,1000
16:50:30.261,-5.08,0.91,-114.14,0.43,-0.3,0.3,-0.01,-0.09,1.02,1000
16:50:30.272,-5.09,0.9,-114.14,0.85,-0.49,0.06,-0.01,-0.09,1.02,1000
16:50:30.285,-5.09,0.88,-114.14,0.85,-0.85,0.24,-0.01,-0.09,1.03,1000
16:50:30.294,-5.08,0.85,-114.14,0.85,-0.98,0.37,-0.01,-0.09,1.03,1000
16:50:30.305,-5.05,0.84,-114.13,0.43,-1.16,0.61,-0.02,-0.08,1.03,1000
16:50:30.317,-5.03,0.83,-114.12,-0.24,-1.16,1.22,-0.02,-0.08,1.04,1000
16:50:30.327,-5.0,0.82,-114.11,-1.1,-0.98,1.52,-0.02,-0.08,1.03,1000
16:50:30.338,-5.0,0.82,-114.09,-1.46,-0.91,2.26,-0.02,-0.09,1.03,1000
16:50:30.349,-5.0,0.83,-114.06,-1.52,-1.04,2.68,-0.02,-0.09,1.03,1000
16:50:30.360,-5.01,0.85,-114.03,-1.1,-1.16,2.99,-0.02,-0.09,1.03,1000
16:50:30.371,-5.02,0.85,-114.0,-0.24,-0.73,2.62,-0.02,-0.1,1.03,1000
16:50:30.382,-5.02,0.86,-113.97,0.98,-0.3,1.59,-0.01,-0.09,1.03,1000
16:50:30.393,-5.02,0.86,-113.96,2.26,0.12,0.79,-0.01,-0.09,1.03,1000
16:50:30.405,-4.99,0.85,-113.95,2.93,0.43,0.18,-0.01,-0.09,1.03,1000
16:50:30.415,-4.95,0.84,-113.95,3.29,0.79,-0.55,-0.01,-0.09,1.03,1000
16:50:30.428,-4.9,0.83,-113.96,3.11,1.1,-0.79,-0.01,-0.08,1.03,1000
16:50:30.437,-4.85,0.83,-113.97,2.38,1.1,-0.85,-0.02,-0.09,1.03,1000
16:50:30.448,-4.8,0.85,-113.98,1.65,0.49,-0.49,-0.02,-0.08,1.02,1000
16:50:30.459,-4.77,0.87,-113.98,0.91,0.18,-0.37,-0.02,-0.08,1.02,1000
16:50:30.470,-4.74,0.88,-113.99,0.12,-0.18,-0.43,-0.02,-0.08,1.02,1000
16:50:30.481,-4.72,0.88,-113.99,-0.73,-0.49,-0.73,-0.02,-0.08,1.02,1000
16:50:30.492,-4.71,0.88,-114.0,-1.83,-1.1,-0.67,-0.01,-0.08,1.02,1000
16:50:30.505,-4.71,0.86,-114.01,-2.56,-1.46,-0.61,-0.01,-0.08,1.02,1000
16:50:30.514,-4.74,0.84,-114.02,-3.11,-1.77,-0.49,-0.01,-0.09,1.02,1000
16:50:30.532,-4.76,0.81,-114.02,-2.93,-1.83,-0.85,-0.0,-0.09,1.02,1000
16:50:30.536,-4.81,0.78,-114.03,-2.68,-1.71,-1.34,-0.01,-0.09,1.03,1000
16:50:30.547,-4.84,0.74,-114.05,-2.62,-1.71,-1.71,-0.0,-0.09,1.02,1000
16:50:30.558,-4.87,0.7,-114.08,-2.2,-1.83,-2.32,-0.01,-0.08,1.03,1000
16:50:30.570,-4.89,0.66,-114.1,-2.38,-2.2,-2.99,-0.01,-0.08,1.02,1000
16:50:30.580,-4.9,0.64,-114.13,-2.2,-2.5,-2.99,-0.01,-0.09,1.02,1000
16:50:30.593,-4.92,0.62,-114.17,-1.89,-2.2,-3.35,-0.01,-0.09,1.03,1000
16:50:30.603,-4.94,0.61,-114.21,-1.83,-1.77,-3.54,-0.01,-0.09,1.03,1000
16:50:30.613,-4.95,0.61,-114.24,-1.71,-1.77,-3.29,-0.01,-0.09,1.03,1000
16:50:30.624,-4.97,0.6,-114.28,-1.4,-2.01,-2.68,-0.01,-0.1,1.03,1000
16:50:30.635,-5.0,0.58,-114.31,-0.43,-2.07,-2.32,-0.01,-0.1,1.03,1000
16:50:30.646,-5.03,0.57,-114.33,1.16,-2.44,-2.93,-0.03,-0.11,1.04,1000
16:50:30.657,-5.06,0.58,-114.37,2.87,-2.56,-4.15,-0.02,-0.11,1.05,1000
16:50:30.669,-5.04,0.56,-114.43,5.24,-2.56,-5.24,0.0,-0.08,1.04,1000
16:50:30.679,-4.99,0.52,-114.49,5.37,-3.66,-4.88,-0.0,-0.09,1.05,1000
16:50:30.690,-4.95,0.45,-114.53,3.78,-5.43,-3.35,0.0,-0.09,1.06,1000
16:50:30.701,-4.92,0.36,-114.56,0.91,-7.38,-1.28,0.01,-0.09,1.05,1000
16:50:30.713,-4.92,0.25,-114.56,-0.85,-8.78,1.1,-0.0,-0.11,1.05,1000
16:50:30.723,-4.93,0.15,-114.53,-1.65,-10.06,3.35,-0.01,-0.07,1.04,1000
16:50:30.738,-4.97,0.07,-114.49,-2.07,-9.7,5.12,-0.01,-0.1,1.03,1000
16:50:30.747,-5.02,0.01,-114.43,-0.91,-8.11,5.85,-0.01,-0.11,1.01,1000
16:50:30.756,-5.06,-0.04,-114.36,-1.52,-4.82,7.2,0.01,-0.08,1.02,1000
16:50:30.767,-5.13,-0.06,-114.27,-2.68,0.55,8.23,-0.0,-0.12,0.98,1000
16:50:30.779,-5.3,0.02,-114.18,-3.23,9.33,7.38,-0.01,-0.13,0.98,1000
16:50:30.789,-5.45,0.17,-114.11,-5.3,17.93,6.59,0.02,-0.1,0.99,1000
16:50:30.800,-5.55,0.37,-114.03,-9.76,26.52,6.83,0.02,-0.06,0.99,1000
16:50:30.812,-5.64,0.63,-113.95,-15.61,33.17,8.41,0.01,-0.05,0.99,1000
16:50:30.823,-5.74,0.96,-113.84,-21.95,37.26,11.04,-0.0,-0.05,1.0,1000
16:50:30.846,-5.8,1.25,-113.71,-27.74,38.6,13.9,-0.02,-0.06,1.0,1000
16:50:30.849,-5.99,1.62,-113.55,-32.38,39.15,16.52,-0.04,-0.1,1.0,1000
16:50:30.855,-6.29,2.04,-113.36,-33.48,38.66,17.99,-0.08,-0.13,0.98,1000
16:50:30.866,-6.66,2.56,-113.16,-26.89,37.44,16.89,-0.13,-0.17,0.98,1000
16:50:30.877,-7.04,3.21,-113.0,-13.29,34.7,12.38,-0.17,-0.18,1.02,1000
16:50:30.888,-7.24,3.9,-112.89,4.63,30.06,6.46,-0.1,-0.13,1.12,1000
16:50:30.899,-7.14,4.32,-112.83,20.67,22.56,4.27,-0.06,-0.11,1.14,1000
16:50:30.913,-6.8,4.51,-112.79,37.13,11.83,4.51,-0.06,-0.1,1.13,1000
16:50:30.921,-6.21,4.52,-112.72,50.79,-0.79,6.77,-0.04,-0.07,1.14,1000
16:50:30.941,-5.59,4.36,-112.64,55.98,-9.76,9.76,-0.03,-0.07,1.12,1000
16:50:30.946,-4.83,4.05,-112.51,53.54,-17.2,12.93,-0.02,-0.05,1.09,1000
16:50:30.954,-4.25,3.71,-112.37,46.16,-18.9,14.88,-0.02,-0.05,1.02,1000
16:50:30.965,-3.75,3.4,-112.2,35.49,-17.32,14.7,-0.08,-0.05,0.99,1000
16:50:30.976,-3.36,3.24,-112.05,25.55,-13.96,10.67,-0.15,-0.09,0.95,1000
16:50:30.987,-3.23,3.47,-111.97,21.04,-11.28,2.5,-0.25,-0.12,0.95,1000
16:50:30.998,-3.15,3.9,-112.0,17.8,-9.21,-7.74,-0.15,-0.02,1.01,1000
16:50:31.009,-2.98,4.11,-112.1,13.84,-7.99,-10.49,-0.07,-0.01,1.03,1000
16:50:31.020,-2.79,4.19,-112.21,10.0,-7.68,-9.15,-0.04,-0.02,1.01,1000
16:50:31.033,-2.65,4.08,-112.29,4.09,-8.54,-4.7,0.0,-0.05,1.01,1000
16:50:31.046,-2.64,3.76,-112.3,-9.02,-8.9,3.48,0.05,-0.04,1.0,1000
16:50:31.053,-2.77,3.31,-112.24,-21.34,-7.07,8.72,0.08,-0.07,0.97,1000
16:50:31.064,-3.07,2.82,-112.14,-26.52,-3.96,9.02,0.02,-0.14,0.9,1000
16:50:31.079,-3.61,2.49,-112.06,-28.48,1.89,3.6,-0.01,-0.08,0.99,1000
16:50:31.086,-4.0,2.35,-112.05,-27.56,2.13,-1.71,-0.04,-0.08,1.0,1000
16:50:31.101,-4.33,2.24,-112.09,-25.24,-0.06,-4.94,0.01,-0.08,1.06,1000
16:50:31.108,-4.6,2.13,-112.15,-21.89,-1.34,-5.3,0.03,-0.1,1.06,1000
16:50:31.122,-4.85,1.9,-112.2,-19.09,-2.8,-3.35,0.06,-0.12,1.07,1000
16:50:31.130,-5.11,1.59,-112.22,-17.56,-2.74,0.79,0.09,-0.11,1.07,1000
16:50:31.146,-5.33,1.24,-112.2,-16.52,-1.28,2.8,0.06,-0.14,1.03,1000
16:50:31.152,-5.62,0.96,-112.17,-13.84,0.67,0.18,-0.04,-0.13,1.04,1000
16:50:31.163,-5.86,0.9,-112.21,-6.46,0.91,-6.28,-0.08,-0.15,1.0,1000
16:50:31.174,-6.05,1.02,-112.3,2.07,-0.73,-13.35,-0.1,-0.15,1.08,1000
16:50:31.185,-6.1,1.19,-112.47,12.5,-4.51,-17.56,-0.06,-0.09,1.05,1000
16:50:31.196,-5.92,1.23,-112.67,19.51,-8.29,-17.07,0.0,-0.06,1.12,1000
16:50:31.207,-5.62,1.09,-112.84,23.29,-10.98,-14.15,0.03,-0.1,1.03,1000
16:50:31.222,-5.33,0.83,-112.98,22.38,-9.45,-10.79,0.06,-0.07,1.06,1000
16:50:31.229,-5.03,0.53,-113.1,17.56,-4.45,-9.7,0.02,-0.09,0.96,1000
16:50:31.248,-4.87,0.39,-113.21,13.48,1.16,-13.6,-0.04,-0.1,0.97,1000
16:50:31.251,-4.73,0.43,-113.39,9.45,6.1,-18.96,-0.04,-0.04,0.96,1000
16:50:31.262,-4.57,0.57,-113.62,4.63,9.82,-24.45,-0.06,-0.06,0.99,1000
16:50:31.273,-4.45,0.88,-113.92,2.99,10.06,-30.24,-0.1,-0.05,0.97,1000
16:50:31.284,-4.32,1.18,-114.28,3.29,6.4,-33.6,-0.08,-0.02,1.01,1000
16:50:31.295,-4.16,1.41,-114.65,3.48,0.85,-34.21,-0.06,-0.04,0.98,1000
16:50:31.306,-4.02,1.53,-115.02,3.17,-4.15,-32.44,-0.04,-0.04,0.99,1000
16:50:31.324,-3.88,1.54,-115.39,0.91,-8.17,-28.66,-0.04,-0.03,0.99,1000
16:50:31.328,-3.72,1.52,-115.69,-3.66,-9.94,-25.67,-0.03,-0.03,0.99,1000
16:50:31.353,-3.63,1.49,-115.93,-7.2,-10.49,-23.66,-0.08,-0.04,0.98,1000
16:50:31.353,-3.58,1.51,-116.21,-10.18,-9.21,-22.5,-0.07,0.01,1.01,1000
16:50:31.365,-3.49,1.59,-116.43,-12.87,-7.44,-20.91,-0.08,-0.02,1.05,1000
16:50:31.372,-3.48,1.67,-116.67,-14.82,-5.18,-19.09,-0.08,-0.02,1.04,1000
16:50:31.383,-3.46,1.8,-116.85,-15.18,-3.11,-16.34,-0.06,-0.03,1.08,1000
16:50:31.394,-3.48,1.9,-117.01,-16.46,-0.18,-12.87,-0.06,-0.06,1.06,1000
16:50:31.405,-3.57,2.0,-117.14,-17.01,2.99,-9.51,-0.06,-0.05,1.08,1000
16:50:31.425,-3.69,2.16,-117.23,-13.54,5.06,-7.87,-0.11,-0.11,1.01,1000
16:50:31.432,-3.86,2.46,-117.33,-7.99,5.73,-8.29,-0.13,-0.09,1.06,1000
16:50:31.438,-3.93,2.77,-117.41,-2.44,4.09,-8.29,-0.11,-0.06,1.04,1000
16:50:31.453,-3.89,3.04,-117.5,4.82,0.24,-6.22,-0.08,-0.07,1.05,1000
16:50:31.460,-3.8,3.16,-117.56,10.37,-3.54,-4.27,-0.07,-0.06,1.01,1000
16:50:31.471,-3.65,3.22,-117.59,14.27,-7.62,-2.26,-0.06,-0.06,1.01,1000
16:50:31.482,-3.47,3.19,-117.61,15.43,-10.67,-1.34,-0.05,-0.06,0.98,1000
16:50:31.493,-3.3,3.12,-117.63,17.87,-13.05,-2.2,-0.11,-0.08,0.91,1000
16:50:31.504,-3.12,3.21,-117.69,22.68,-16.1,-7.99,-0.14,-0.02,0.94,1000
16:50:31.515,-2.79,3.29,-117.79,23.48,-18.23,-10.67,-0.05,0.03,0.99,1000
16:50:31.529,-2.37,3.19,-117.9,21.59,-18.48,-10.06,-0.02,0.0,0.96,1000
16:50:31.537,-1.97,2.99,-118.01,18.11,-16.04,-8.29,0.01,0.01,0.94,1000
16:50:31.555,-1.64,2.74,-118.08,12.5,-11.28,-5.98,0.04,0.02,0.94,1000
16:50:31.560,-1.31,2.39,-118.14,3.05,-3.6,-3.96,0.04,0.02,0.92,1000
16:50:31.570,-1.11,2.14,-118.18,-4.63,4.09,-3.72,0.01,0.02,0.9,1000
16:50:31.581,-1.03,2.04,-118.22,-11.59,12.13,-5.24,-0.03,-0.0,0.9,1000
16:50:31.592,-1.02,2.13,-118.29,-17.07,18.84,-8.11,-0.04,0.03,0.92,1000
16:50:31.603,-1.03,2.35,-118.4,-21.71,22.56,-11.04,-0.05,0.01,0.96,1000
16:50:31.614,-1.12,2.66,-118.53,-23.72,21.59,-13.48,-0.08,-0.02,0.95,1000
16:50:31.626,-1.31,3.04,-118.71,-24.27,16.46,-15.79,-0.1,-0.02,1.03,1000
16:50:31.641,-1.48,3.31,-118.86,-23.72,9.94,-15.91,-0.07,-0.03,1.04,1000
16:50:31.648,-1.74,3.45,-119.04,-22.74,1.46,-12.5,-0.03,-0.11,1.08,1000
16:50:31.661,-2.1,3.4,-119.15,-21.83,-5.55,-7.32,0.01,-0.16,1.09,1000
16:50:31.669,-2.59,3.17,-119.21,-21.04,-9.15,-3.17,0.01,-0.18,1.1,1000
16:50:31.680,-3.12,2.91,-119.23,-20.49,-10.55,-1.77,-0.04,-0.18,1.1,1000
16:50:31.691,-3.65,2.76,-119.27,-18.05,-10.61,-5.85,-0.12,-0.19,1.11,1000
16:50:31.703,-4.16,2.78,-119.36,-12.44,-11.1,-12.2,-0.12,-0.19,1.11,1000
16:50:31.713,-4.52,2.79,-119.52,-5.91,-11.83,-16.52,-0.07,-0.18,1.15,1000
16:50:31.726,-4.88,2.76,-119.71,0.91,-12.32,-17.38,-0.04,-0.21,1.11,1000
16:50:31.735,-5.17,2.64,-119.9,7.68,-12.56,-15.98,-0.01,-0.23,1.11,1000
16:50:31.746,-5.53,2.43,-120.06,12.99,-12.99,-12.93,0.01,-0.22,1.06,1000
16:50:31.759,-5.8,2.16,-120.19,16.28,-13.17,-10.18,0.01,-0.22,1.04,1000
16:50:31.768,-5.99,1.92,-120.29,18.11,-12.01,-9.09,-0.02,-0.17,1.01,1000
16:50:31.779,-6.08,1.7,-120.39,17.74,-9.57,-8.23,0.01,-0.1,1.02,1000
16:50:31.790,-5.99,1.47,-120.48,14.88,-5.49,-6.77,0.03,-0.09,1.02,1000
16:50:31.801,-5.87,1.27,-120.54,12.13,-0.85,-5.73,0.0,-0.08,1.0,1000
16:50:31.812,-5.7,1.17,-120.6,8.35,4.21,-4.82,0.0,-0.06,1.03,1000
16:50:31.823,-5.54,1.12,-120.65,2.87,7.87,-2.62,0.02,-0.06,1.03,1000
16:50:31.836,-5.43,1.08,-120.66,-2.99,9.51,1.04,0.03,-0.07,1.03,1000
16:50:31.845,-5.38,1.0,-120.62,-8.78,9.76,5.98,0.04,-0.07,1.03,1000
16:50:31.862,-5.43,0.89,-120.53,-15.43,8.66,11.16,0.04,-0.1,1.03,1000
16:50:31.867,-5.59,0.81,-120.39,-21.28,7.5,14.45,0.01,-0.1,1.05,1000
16:50:31.878,-5.81,0.76,-120.22,-25.61,6.04,16.1,-0.02,-0.1,1.05,1000
16:50:31.889,-6.06,0.78,-120.04,-26.16,4.15,16.52,-0.04,-0.1,1.04,1000
16:50:31.900,-6.3,0.86,-119.87,-24.51,1.71,15.12,-0.06,-0.09,1.08,1000
16:50:31.911,-6.45,0.96,-119.7,-21.95,-1.65,14.33,-0.03,-0.07,1.09,1000
16:50:31.924,-6.54,0.98,-119.53,-18.6,-5.49,15.49,-0.01,-0.1,1.11,1000
16:50:31.939,-6.61,0.91,-119.37,-14.57,-7.93,17.32,0.0,-0.13,1.07,1000
16:50:31.944,-6.7,0.76,-119.17,-10.67,-9.02,18.6,0.02,-0.13,1.1,1000
16:50:31.955,-6.8,0.58,-118.96,-7.87,-8.84,18.96,0.02,-0.14,1.08,1000
16:50:31.971,-6.88,0.42,-118.76,-5.18,-7.44,17.44,0.02,-0.13,1.07,1000
16:50:31.979,-6.94,0.27,-118.58,-2.93,-5.0,14.45,0.01,-0.14,1.06,1000
16:50:31.988,-6.97,0.18,-118.44,-0.85,-1.77,10.43,-0.0,-0.12,1.05,1000
16:50:31.999,-7.0,0.15,-118.35,1.71,1.28,5.0,-0.02,-0.17,1.02,1000
16:50:32.011,-7.06,0.23,-118.33,4.82,2.99,-1.65,-0.05,-0.15,1.03,1000
16:50:32.041,-7.07,0.33,-118.37,7.8,2.8,-6.71,-0.01,-0.14,1.04,1000
16:50:32.041,-7.05,0.38,-118.47,9.88,0.37,-8.66,0.01,-0.15,1.04,1000
16:50:32.044,-7.02,0.32,-118.56,11.59,-3.29,-8.54,0.03,-0.13,1.02,1000
16:50:32.076,-6.94,0.19,-118.64,11.59,-6.52,-7.68,0.04,-0.13,1.04,1000
16:50:32.076,-6.86,-0.01,-118.72,9.21,-8.96,-6.59,0.04,-0.12,1.02,1000
16:50:32.076,-6.78,-0.25,-118.79,5.24,-8.9,-6.28,0.04,-0.1,1.02,1000
16:50:32.087,-6.71,-0.49,-118.87,1.16,-7.01,-7.32,0.02,-0.1,1.0,1000
16:50:32.098,-6.66,-0.63,-118.95,-1.46,-4.63,-9.15,0.01,-0.1,0.99,1000
16:50:32.109,-6.62,-0.71,-119.06,-2.38,-2.13,-11.83,-0.01,-0.1,0.97,1000
16:50:32.120,-6.59,-0.68,-119.21,-2.07,-0.91,-14.88,-0.04,-0.09,0.99,1000
16:50:32.131,-6.53,-0.55,-119.38,-1.28,-1.22,-16.59,-0.03,-0.09,1.0,1000
16:50:32.144,-6.46,-0.46,-119.58,-1.04,-3.05,-15.3,0.01,-0.1,1.03,1000
16:50:32.153,-6.41,-0.46,-119.72,-1.1,-4.63,-12.01,0.02,-0.11,1.01,1000
16:50:32.171,-6.39,-0.53,-119.83,-1.4,-5.67,-7.56,0.03,-0.12,1.02,1000
16:50:32.175,-6.4,-0.64,-119.89,-3.05,-5.3,-3.29,0.03,-0.11,1.01,1000
16:50:32.186,-6.44,-0.74,-119.92,-5.55,-3.6,-0.79,0.01,-0.11,1.01,1000
16:50:32.197,-6.51,-0.77,-119.92,-7.62,-0.85,-0.55,-0.01,-0.12,1.0,1000
16:50:32.208,-6.59,-0.73,-119.93,-7.8,2.2,-1.4,-0.01,-0.11,1.0,1000
16:50:32.219,-6.65,-0.62,-119.96,-6.59,4.02,-2.56,-0.01,-0.1,1.01,1000
16:50:32.230,-6.65,-0.51,-119.99,-4.63,4.82,-3.96,-0.01,-0.11,1.02,1000
16:50:32.246,-6.65,-0.4,-120.04,-1.4,5.24,-5.55,-0.0,-0.1,1.03,1000
16:50:32.253,-6.61,-0.32,-120.1,0.79,5.55,-6.16,0.01,-0.11,1.04,1000
16:50:32.268,-6.55,-0.26,-120.17,2.99,6.16,-6.83,0.02,-0.11,1.02,1000
16:50:32.276,-6.47,-0.22,-120.25,4.51,6.83,-8.17,0.01,-0.1,1.04,1000
16:50:32.285,-6.36,-0.17,-120.35,5.12,7.8,-9.88,0.02,-0.1,1.03,1000
16:50:32.296,-6.26,-0.12,-120.47,5.06,9.02,-11.89,0.01,-0.12,1.03,1000
16:50:32.307,-6.19,-0.04,-120.62,5.0,10.73,-15.37,-0.02,-0.11,1.05,1000
16:50:32.318,-6.13,0.08,-120.8,4.45,11.59,-18.96,0.0,-0.11,1.05,1000
16:50:32.330,-6.09,0.18,-121.02,4.57,12.2,-21.16,0.02,-0.13,1.04,1000
16:50:32.340,-6.07,0.25,-121.26,5.18,12.44,-22.13,0.04,-0.13,1.04,1000
16:50:32.351,-6.07,0.27,-121.51,5.12,12.99,-23.17,0.05,-0.13,1.04,1000
16:50:32.362,-6.11,0.18,-121.77,3.54,14.33,-23.9,0.07,-0.14,1.03,1000
16:50:32.379,-6.18,0.05,-122.03,1.95,16.34,-24.39,0.1,-0.14,1.01,1000
16:50:32.384,-6.23,-0.09,-122.3,-1.4,19.57,-25.55,0.09,-0.11,1.0,1000
16:50:32.395,-6.32,-0.18,-122.61,-2.8,21.95,-30.43,0.02,-0.19,0.96,1000
16:50:32.406,-6.57,-0.08,-123.03,3.23,22.38,-41.89,-0.11,-0.24,0.94,1000
16:50:32.418,-6.78,0.26,-123.5,8.54,23.11,-54.33,-0.03,-0.08,1.08,1000
16:50:32.428,-6.69,0.53,-124.13,11.16,23.29,-60.73,0.09,-0.05,1.11,1000
16:50:32.439,-6.51,0.53,-124.81,13.72,18.6,-62.62,0.11,-0.15,1.15,1000
16:50:32.451,-6.36,0.38,-125.51,19.09,11.28,-64.57,0.1,-0.14,1.09,1000
16:50:32.461,-6.17,0.13,-126.24,22.32,4.45,-67.8,0.09,-0.1,1.12,1000
16:50:32.478,-5.88,-0.28,-127.01,19.63,-0.18,-72.8,0.12,-0.06,1.1,1000
16:50:32.483,-5.6,-0.66,-127.83,16.4,-1.59,-77.5,0.08,-0.1,1.0,1000
16:50:32.494,-5.49,-0.92,-128.73,13.54,-0.61,-89.02,-0.06,-0.17,1.02,1000
16:50:32.505,-5.47,-0.86,-129.78,12.38,2.74,-104.09,-0.1,-0.1,1.01,1000
16:50:32.516,-5.4,-0.6,-131.0,11.59,8.05,-118.72,-0.08,-0.1,1.08,1000
16:50:32.527,-5.29,-0.28,-132.35,13.6,11.77,-128.11,-0.0,-0.09,1.09,1000
16:50:32.539,-5.14,-0.09,-133.9,19.39,12.01,-129.02,0.04,-0.14,1.12,1000
16:50:32.552,-5.03,-0.05,-135.31,26.83,9.76,-125.55,0.03,-0.17,1.08,1000
16:50:32.560,-4.89,-0.07,-136.54,33.05,7.13,-120.61,0.03,-0.15,1.09,1000
16:50:32.578,-4.73,-0.16,-137.84,36.28,5.85,-114.09,0.02,-0.1,1.03,1000
16:50:32.582,-4.45,-0.22,-139.17,34.21,5.55,-107.26,-0.02,-0.05,1.02,1000
16:50:32.593,-4.16,-0.13,-140.22,31.71,4.76,-103.6,-0.11,-0.08,0.94,1000
16:50:32.604,-3.85,0.24,-141.36,29.57,2.8,-103.48,-0.21,-0.03,0.99,1000
16:50:32.615,-3.42,0.89,-142.49,28.84,-1.1,-101.71,-0.19,0.0,0.99,1000
16:50:32.626,-2.95,1.47,-143.59,28.11,-5.79,-95.85,-0.12,-0.01,1.05,1000
16:50:32.638,-2.5,1.81,-144.59,30.43,-9.57,-84.76,-0.06,-0.02,1.01,1000
16:50:32.649,-2.1,1.86,-145.46,31.1,-10.61,-71.34,-0.01,-0.05,1.04,1000
16:50:32.660,-1.81,1.77,-146.17,29.63,-8.29,-56.46,0.01,-0.09,0.98,1000
16:50:32.679,-1.66,1.63,-146.73,26.34,-3.17,-44.02,-0.0,-0.08,0.99,1000
16:50:32.681,-1.62,1.57,-147.2,20.61,6.22,-34.33,-0.05,-0.04,0.95,1000
16:50:32.692,-1.56,1.73,-147.52,14.7,15.12,-30.12,-0.09,0.0,0.96,1000
16:50:32.703,-1.4,2.11,-147.84,6.04,24.7,-27.74,-0.09,0.04,0.96,1000
16:50:32.714,-1.27,2.58,-148.14,-0.06,31.95,-26.77,-0.14,-0.01,0.91,1000
16:50:32.725,-1.21,3.19,-148.44,-2.62,35.79,-27.13,-0.15,0.03,0.96,1000
16:50:32.736,-1.07,3.87,-148.73,-5.37,36.65,-25.37,-0.11,0.04,0.96,1000
16:50:32.749,-0.94,4.48,-148.99,-7.26,34.33,-21.89,-0.11,0.0,0.95,1000
16:50:32.762,-0.91,5.01,-149.24,-9.02,29.09,-18.23,-0.1,0.02,0.96,1000
16:50:32.772,-0.9,5.35,-149.41,-11.83,23.41,-15.24,-0.11,0.01,0.96,1000
16:50:32.783,-0.93,5.67,-149.56,-15.73,16.22,-13.48,-0.14,0.0,0.95,1000
16:50:32.791,-1.03,5.92,-149.71,-20.43,8.78,-13.29,-0.15,0.0,0.96,1000
16:50:32.802,-1.18,6.16,-149.86,-24.39,2.32,-14.15,-0.16,-0.01,0.96,1000
16:50:32.814,-1.39,6.36,-150.02,-26.34,-3.6,-15.67,-0.17,-0.01,0.97,1000
16:50:32.824,-1.57,6.56,-150.2,-26.65,-8.23,-16.83,-0.16,0.01,0.99,1000
16:50:32.835,-1.73,6.69,-150.39,-25.67,-11.59,-17.44,-0.19,0.0,1.0,1000
16:50:32.848,-1.86,6.8,-150.58,-23.78,-13.41,-17.07,-0.15,0.01,1.01,1000
16:50:32.858,-1.99,6.78,-150.76,-22.07,-13.54,-12.5,-0.08,-0.03,1.03,1000
16:50:32.868,-2.14,6.66,-150.86,-20.67,-10.85,-6.46,-0.05,-0.08,1.02,1000
16:50:32.882,-2.4,6.44,-150.9,-18.96,-5.06,1.16,-0.03,-0.09,1.03,1000
16:50:32.892,-2.71,6.22,-150.85,-18.11,2.56,7.68,-0.03,-0.1,1.02,1000
16:50:32.901,-3.05,6.05,-150.75,-17.93,10.85,11.89,-0.07,-0.08,1.02,1000
16:50:32.912,-3.35,6.05,-150.6,-17.5,17.56,12.68,-0.11,-0.06,1.03,1000
16:50:32.926,-3.54,6.17,-150.47,-17.26,20.67,11.59,-0.12,-0.05,1.04,1000
16:50:32.934,-3.69,6.38,-150.35,-16.95,20.79,10.24,-0.13,-0.06,1.05,1000
16:50:32.946,-3.84,6.64,-150.24,-15.49,17.56,8.05,-0.14,-0.08,1.04,1000
16:50:32.957,-4.0,6.86,-150.16,-14.21,12.87,6.16,-0.14,-0.1,1.05,1000
16:50:32.967,-4.19,7.01,-150.1,-13.41,6.16,4.33,-0.13,-0.12,1.05,1000
16:50:32.981,-4.42,7.07,-150.06,-12.32,0.12,3.48,-0.12,-0.13,1.05,1000
16:50:32.990,-4.68,7.03,-150.03,-10.61,-6.65,2.56,-0.12,-0.12,1.06,1000
16:50:33.000,-4.87,6.92,-150.01,-9.15,-11.95,1.83,-0.1,-0.12,1.05,1000
16:50:33.011,-5.08,6.69,-149.99,-7.44,-15.85,1.46,-0.09,-0.12,1.06,1000
16:50:33.022,-5.26,6.41,-149.97,-5.85,-17.32,0.85,-0.09,-0.12,1.05,1000
16:50:33.033,-5.39,6.13,-149.97,-4.88,-16.52,-0.49,-0.08,-0.1,1.06,1000
16:50:33.044,-5.46,5.85,-149.98,-3.96,-13.84,-1.04,-0.06,-0.1,1.06,1000
16:50:33.056,-5.52,5.57,-149.99,-2.8,-10.43,-1.34,-0.05,-0.1,1.05,1000
16:50:33.066,-5.56,5.33,-150.0,-0.91,-6.65,-0.91,-0.04,-0.1,1.05,1000
16:50:33.083,-5.58,5.11,-150.01,0.3,-3.84,-0.55,-0.04,-0.11,1.03,1000
16:50:33.095,-5.59,4.89,-150.01,1.71,-1.4,0.3,-0.03,-0.1,1.03,1000
16:50:33.099,-5.59,4.72,-150.01,3.05,0.67,0.37,-0.05,-0.11,1.02,1000
16:50:33.110,-5.57,4.54,-150.01,4.33,1.04,0.37,-0.04,-0.09,1.02,1000
16:50:33.121,-5.5,4.39,-150.0,4.27,0.61,0.67,-0.05,-0.08,1.03,1000
16:50:33.132,-5.41,4.27,-149.99,4.15,-1.1,1.04,-0.07,-0.08,1.02,1000
16:50:33.143,-5.29,4.19,-149.98,3.96,-3.54,0.91,-0.08,-0.05,1.04,1000
16:50:33.154,-5.12,4.11,-149.97,2.32,-6.65,2.2,-0.06,-0.06,1.03,1000
16:50:33.168,-5.02,3.97,-149.93,0.67,-9.57,5.0,-0.03,-0.1,1.02,1000
16:50:33.176,-4.99,3.75,-149.86,-1.65,-10.61,8.54,-0.02,-0.09,1.02,1000
16:50:33.194,-5.04,3.48,-149.75,-5.12,-9.51,11.04,-0.03,-0.12,1.03,1000
16:50:33.201,-5.17,3.27,-149.62,-9.21,-5.98,10.79,-0.05,-0.12,1.03,1000
16:50:33.212,-5.34,3.16,-149.51,-11.28,-2.56,8.84,-0.07,-0.12,1.03,1000
16:50:33.220,-5.5,3.14,-149.43,-11.65,0.37,5.61,-0.1,-0.09,1.05,1000
16:50:33.232,-5.59,3.22,-149.39,-10.12,2.5,1.83,-0.09,-0.05,1.06,1000
16:50:33.242,-5.59,3.31,-149.38,-6.71,3.48,0.24,-0.06,-0.06,1.07,1000
16:50:33.254,-5.51,3.35,-149.38,-2.62,3.54,0.55,-0.04,-0.08,1.06,1000
16:50:33.266,-5.4,3.33,-149.37,1.65,3.54,2.2,-0.04,-0.08,1.07,1000
16:50:33.275,-5.31,3.29,-149.34,2.93,4.21,3.17,-0.04,-0.1,1.05,1000
16:50:33.286,-5.25,3.27,-149.3,3.54,5.06,3.29,-0.05,-0.1,1.05,1000
16:50:33.297,-5.23,3.28,-149.27,3.23,5.55,2.38,-0.07,-0.11,1.05,1000
16:50:33.308,-5.21,3.32,-149.25,3.11,4.94,0.73,-0.08,-0.11,1.05,1000
16:50:33.319,-5.2,3.42,-149.26,4.88,3.17,-1.83,-0.11,-0.09,1.06,1000
16:50:33.333,-5.12,3.57,-149.3,7.68,-0.37,-4.88,-0.09,-0.08,1.08,1000
16:50:33.341,-5.02,3.62,-149.35,9.27,-2.8,-5.24,-0.07,-0.11,1.07,1000
16:50:33.352,-4.94,3.59,-149.4,10.67,-4.88,-4.63,-0.05,-0.13,1.05,1000
16:50:33.363,-4.92,3.5,-149.45,11.04,-5.12,-2.99,-0.03,-0.14,1.03,1000
16:50:33.375,-4.94,3.38,-149.47,9.94,-3.17,-1.83,-0.04,-0.14,1.01,1000
16:50:33.385,-4.98,3.28,-149.49,8.84,-1.34,-2.2,-0.07,-0.08,1.02,1000
16:50:33.399,-4.93,3.24,-149.52,7.8,0.0,-3.17,-0.06,-0.04,1.01,1000
16:50:33.407,-4.78,3.22,-149.56,6.34,1.1,-3.48,-0.05,-0.04,1.01,1000
16:50:33.418,-4.62,3.21,-149.6,5.3,2.07,-3.96,-0.05,-0.04,0.99,1000
16:50:33.431,-4.45,3.22,-149.64,3.9,3.48,-4.33,-0.06,-0.06,0.99,1000
16:50:33.440,-4.35,3.25,-149.69,1.77,4.88,-5.43,-0.07,-0.07,0.98,1000
16:50:33.451,-4.3,3.34,-149.77,-0.91,5.98,-6.77,-0.07,-0.08,0.98,1000
16:50:33.463,-4.32,3.43,-149.84,-2.99,6.83,-7.32,-0.07,-0.09,0.98,1000
16:50:33.475,-4.39,3.51,-149.92,-5.12,7.56,-7.44,-0.07,-0.09,0.99,1000
16:50:33.484,-4.51,3.62,-150.01,-5.43,7.38,-7.62,-0.09,-0.11,0.98,1000
16:50:33.499,-4.65,3.76,-150.09,-4.94,6.46,-8.48,-0.11,-0.09,1.02,1000
16:50:33.507,-4.73,3.92,-150.19,-4.09,4.21,-8.72,-0.1,-0.08,1.02,1000
16:50:33.517,-4.77,4.06,-150.28,-2.5,1.59,-7.8,-0.1,-0.1,1.02,1000
16:50:33.528,-4.81,4.15,-150.36,-0.85,-0.55,-6.59,-0.09,-0.09,1.02,1000
16:50:33.540,-4.83,4.21,-150.42,0.06,-2.13,-4.39,-0.09,-0.09,1.02,1000
16:50:33.550,-4.84,4.24,-150.46,0.06,-2.74,-2.26,-0.08,-0.08,1.02,1000
16:50:33.563,-4.83,4.24,-150.47,0.37,-2.2,0.0,-0.08,-0.08,0.99,1000
16:50:33.572,-4.82,4.26,-150.47,0.3,-1.1,0.37,-0.1,-0.07,1.02,1000
16:50:33.583,-4.78,4.33,-150.47,0.67,0.24,-0.43,-0.11,-0.08,1.0,1000
16:50:33.598,-4.74,4.47,-150.48,1.89,1.16,-2.44,-0.15,-0.08,1.03,1000
16:50:33.605,-4.69,4.63,-150.52,4.15,0.73,-3.96,-0.12,-0.07,1.05,1000
16:50:33.618,-4.6,4.74,-150.55,5.73,-0.49,-2.38,-0.08,-0.09,1.06,1000
16:50:33.627,-4.55,4.77,-150.57,6.95,-1.22,0.61,-0.07,-0.11,1.04,1000
16:50:33.638,-4.54,4.74,-150.54,7.32,-1.59,3.84,-0.05,-0.12,1.03,1000
16:50:33.649,-4.61,4.62,-150.48,5.67,-0.98,7.56,-0.04,-0.11,1.02,1000
16:50:33.660,-4.67,4.5,-150.39,4.27,0.06,9.15,-0.07,-0.1,0.98,1000
16:50:33.674,-4.71,4.46,-150.29,2.87,1.1,8.54,-0.08,-0.06,0.99,1000
16:50:33.683,-4.66,4.46,-150.2,1.16,0.79,7.01,-0.08,-0.03,0.99,1000
16:50:33.693,-4.55,4.47,-150.13,0.12,0.0,5.37,-0.09,-0.03,0.99,1000
16:50:33.704,-4.38,4.5,-150.08,-1.28,-0.18,3.66,-0.08,-0.02,1.0,1000
16:50:33.717,-4.2,4.51,-150.05,-2.68,-0.18,2.2,-0.07,-0.02,1.0,1000
16:50:33.726,-4.03,4.5,-150.03,-4.33,0.3,1.1,-0.08,-0.02,1.02,1000
16:50:33.737,-3.91,4.49,-150.02,-5.91,1.4,0.3,-0.07,-0.03,1.02,1000
16:50:33.748,-3.8,4.48,-150.02,-7.13,3.11,-0.18,-0.07,-0.05,1.03,1000
16:50:33.759,-3.76,4.49,-150.03,-7.5,4.88,-1.28,-0.08,-0.07,1.03,1000
16:50:33.770,-3.79,4.54,-150.05,-7.56,6.28,-2.38,-0.09,-0.07,1.04,1000
16:50:33.782,-3.85,4.62,-150.08,-7.01,6.77,-3.6,-0.09,-0.08,1.04,1000
16:50:33.792,-3.93,4.72,-150.12,-6.59,6.83,-4.45,-0.1,-0.09,1.04,1000
16:50:33.808,-4.04,4.84,-150.17,-5.85,6.59,-5.06,-0.11,-0.1,1.04,1000
16:50:33.815,-4.13,4.97,-150.23,-4.51,5.12,-5.85,-0.13,-0.09,1.05,1000
16:50:33.825,-4.2,5.09,-150.3,-3.29,2.74,-6.46,-0.14,-0.08,1.06,1000
16:50:33.836,-4.24,5.22,-150.37,-1.83,-0.43,-6.28,-0.13,-0.08,1.06,1000
16:50:33.847,-4.28,5.29,-150.43,-0.79,-2.99,-5.06,-0.11,-0.1,1.06,1000
16:50:33.858,-4.32,5.31,-150.48,-0.06,-4.63,-2.74,-0.1,-0.1,1.05,1000
16:50:33.872,-4.39,5.3,-150.49,0.12,-5.0,-0.3,-0.1,-0.1,1.05,1000
16:50:33.883,-4.43,5.27,-150.49,-0.12,-4.51,1.59,-0.1,-0.09,1.05,1000
16:50:33.891,-4.47,5.24,-150.46,-0.55,-2.74,3.84,-0.09,-0.09,1.05,1000
16:50:33.914,-4.52,5.21,-150.41,-0.73,-0.61,5.43,-0.09,-0.08,1.05,1000
16:50:33.914,-4.54,5.19,-150.34,-0.85,1.95,7.38,-0.08,-0.08,1.04,1000
16:50:33.925,-4.54,5.18,-150.26,-0.3,3.35,7.99,-0.09,-0.08,1.03,1000
16:50:33.935,-4.52,5.21,-150.17,0.06,3.96,7.87,-0.1,-0.06,1.03,1000
16:50:33.950,-4.46,5.27,-150.08,0.18,3.66,7.8,-0.1,-0.07,1.03,1000
16:50:33.957,-4.4,5.31,-150.0,0.06,2.93,7.8,-0.09,-0.08,1.03,1000
16:50:33.970,-4.37,5.33,-149.91,-0.18,2.07,8.29,-0.09,-0.09,1.02,1000
16:50:33.981,-4.39,5.33,-149.82,-0.79,1.04,8.35,-0.09,-0.09,1.01,1000
16:50:33.990,-4.44,5.31,-149.72,-0.61,-0.67,8.35,-0.09,-0.1,1.01,1000
16:50:34.009,-4.49,5.29,-149.63,-0.55,-2.87,7.93,-0.09,-0.1,1.02,1000
16:50:34.014,-4.52,5.25,-149.55,-0.43,-5.0,7.74,-0.08,-0.08,1.02,1000
16:50:34.023,-4.54,5.15,-149.46,-1.1,-6.65,8.23,-0.07,-0.09,1.02,1000
16:50:34.034,-4.58,4.99,-149.36,-1.95,-6.89,8.72,-0.06,-0.09,1.01,1000
16:50:34.047,-4.62,4.83,-149.27,-2.62,-6.28,8.6,-0.07,-0.08,1.01,1000
16:50:34.056,-4.66,4.72,-149.18,-3.35,-5.3,7.56,-0.07,-0.08,1.02,1000
16:50:34.068,-4.69,4.6,-149.1,-4.15,-4.21,7.38,-0.05,-0.09,1.02,1000
16:50:34.078,-4.76,4.48,-149.02,-4.45,-2.99,7.38,-0.05,-0.11,1.01,1000
16:50:34.092,-4.85,4.36,-148.93,-4.15,-1.95,7.5,-0.05,-0.11,1.01,1000
16:50:34.100,-4.96,4.24,-148.85,-3.54,-1.89,6.89,-0.06,-0.09,1.02,1000
16:50:34.113,-5.0,4.16,-148.78,-3.35,-2.5,6.65,-0.06,-0.07,1.03,1000
16:50:34.122,-5.01,4.07,-148.7,-3.78,-3.17,6.71,-0.05,-0.08,1.03,1000
16:50:34.133,-4.99,3.94,-148.63,-3.48,-3.72,7.07,-0.05,-0.07,1.03,1000
16:50:34.144,-4.97,3.8,-148.55,-3.6,-3.9,7.07,-0.05,-0.08,1.03,1000
16:50:34.155,-4.98,3.67,-148.47,-3.78,-3.9,6.71,-0.05,-0.1,1.03,1000
16:50:34.166,-5.02,3.55,-148.4,-4.09,-3.96,6.59,-0.04,-0.11,1.03,1000
16:50:34.177,-5.09,3.42,-148.33,-3.9,-4.33,6.04,-0.04,-0.11,1.02,1000
16:50:34.192,-5.18,3.27,-148.26,-3.9,-4.51,6.04,-0.03,-0.1,1.03,1000
16:50:34.199,-5.26,3.13,-148.19,-3.9,-4.94,5.85,-0.03,-0.1,1.02,1000
16:50:34.219,-5.32,2.96,-148.13,-3.48,-5.18,5.61,-0.03,-0.09,1.03,1000
16:50:34.221,-5.33,2.8,-148.07,-2.99,-5.12,4.33,-0.04,-0.08,1.03,1000
16:50:34.233,-5.31,2.69,-148.04,-2.5,-5.12,2.99,-0.04,-0.08,1.04,1000
16:50:34.244,-5.27,2.57,-148.01,-2.01,-4.76,2.2,-0.03,-0.09,1.04,1000
16:50:34.254,-5.24,2.46,-147.99,-1.16,-4.09,1.52,-0.03,-0.1,1.02,1000
16:50:34.265,-5.23,2.36,-147.97,-0.24,-3.23,0.98,-0.03,-0.09,1.03,1000
16:50:34.280,-5.22,2.27,-147.97,0.06,-2.38,-0.12,-0.03,-0.1,1.02,1000
16:50:34.287,-5.22,2.17,-147.98,0.37,-1.34,-1.28,-0.02,-0.09,1.02,1000
16:50:34.300,-5.22,2.1,-147.99,0.43,-0.3,-1.95,-0.02,-0.09,1.01,1000
16:50:34.310,-5.2,2.04,-148.02,1.28,0.61,-3.72,-0.05,-0.07,1.01,1000
16:50:34.321,-5.13,2.04,-148.07,2.01,1.04,-5.3,-0.04,-0.06,1.01,1000
16:50:34.331,-5.04,2.05,-148.13,2.26,1.28,-6.71,-0.04,-0.07,1.02,1000
16:50:34.342,-4.95,2.05,-148.21,2.38,1.65,-7.26,-0.03,-0.09,1.0,1000
16:50:34.353,-4.89,2.05,-148.29,2.44,2.07,-7.44,-0.04,-0.09,1.01,1000
16:50:34.364,-4.86,2.06,-148.37,2.2,2.62,-7.93,-0.04,-0.08,1.0,1000
16:50:34.375,-4.81,2.09,-148.46,1.28,3.54,-8.41,-0.05,-0.07,1.01,1000
16:50:34.386,-4.75,2.14,-148.56,-0.06,4.76,-9.09,-0.05,-0.06,1.01,1000
16:50:34.397,-4.67,2.23,-148.66,-1.65,6.46,-10.3,-0.06,-0.06,1.01,1000
16:50:34.408,-4.6,2.37,-148.78,-3.17,7.99,-12.13,-0.09,-0.05,1.02,1000
16:50:34.424,-4.52,2.59,-148.93,-3.78,8.54,-14.57,-0.1,-0.05,1.02,1000
16:50:34.430,-4.47,2.85,-149.1,-2.8,7.8,-16.52,-0.13,-0.08,1.03,1000
16:50:34.441,-4.44,3.18,-149.29,-0.3,5.61,-18.05,-0.13,-0.12,1.03,1000
16:50:34.452,-4.47,3.47,-149.49,1.83,3.29,-17.56,-0.09,-0.1,1.07,1000
16:50:34.463,-4.53,3.63,-149.67,3.72,1.22,-15.0,-0.09,-0.15,1.03,1000
16:50:34.474,-4.6,3.72,-149.82,4.7,0.49,-11.95,-0.08,-0.16,1.04,1000
16:50:34.485,-4.77,3.8,-149.93,4.76,0.3,-8.41,-0.07,-0.13,1.02,1000
16:50:34.498,-4.87,3.85,-150.02,5.0,0.3,-5.61,-0.1,-0.09,1.01,1000
16:50:34.507,-4.89,3.93,-150.07,5.61,-0.18,-4.94,-0.12,-0.06,1.01,1000
16:50:34.520,-4.76,4.1,-150.13,6.34,-1.22,-5.43,-0.15,-0.03,1.03,1000
16:50:34.529,-4.56,4.28,-150.19,6.77,-2.5,-6.34,-0.13,-0.03,1.01,1000
16:50:34.541,-4.33,4.45,-150.27,6.34,-2.93,-5.91,-0.1,-0.07,1.02,1000
16:50:34.551,-4.21,4.56,-150.32,5.98,-2.68,-4.21,-0.09,-0.1,1.0,1000
16:50:34.562,-4.18,4.61,-150.35,4.09,-1.83,-1.71,-0.08,-0.1,1.0,1000
16:50:34.574,-4.2,4.63,-150.36,2.01,-1.1,0.49,-0.07,-0.09,0.98,1000
16:50:34.584,-4.24,4.62,-150.34,-0.55,-0.61,2.62,-0.07,-0.07,0.98,1000
16:50:34.595,-4.25,4.63,-150.31,-2.5,-0.18,3.78,-0.1,-0.05,0.98,1000
16:50:34.606,-4.2,4.68,-150.27,-4.27,-0.18,3.72,-0.1,-0.04,0.98,1000
16:50:34.629,-4.17,4.74,-150.23,-6.52,0.3,3.05,-0.1,-0.05,0.99,1000
16:50:34.629,-4.14,4.81,-150.2,-8.23,0.85,2.62,-0.1,-0.06,0.98,1000
16:50:34.639,-4.17,4.87,-150.17,-9.27,0.91,2.74,-0.1,-0.08,0.99,1000
16:50:34.651,-4.23,4.97,-150.14,-8.66,0.3,2.26,-0.12,-0.06,1.0,1000
16:50:34.661,-4.27,5.07,-150.12,-7.62,-1.59,2.5,-0.1,-0.06,1.02,1000
16:50:34.673,-4.31,5.12,-150.08,-6.65,-3.35,4.15,-0.09,-0.09,1.03,1000
16:50:34.683,-4.38,5.11,-150.03,-5.91,-3.9,6.22,-0.08,-0.1,1.01,1000
16:50:34.694,-4.5,5.06,-149.94,-5.79,-3.23,9.02,-0.07,-0.1,1.02,1000
16:50:34.705,-4.62,5.01,-149.84,-6.4,-1.65,10.24,-0.08,-0.11,1.01,1000
16:50:34.716,-4.75,5.0,-149.72,-7.01,-0.12,10.43,-0.1,-0.09,1.02,1000
16:50:34.732,-4.87,5.03,-149.61,-7.07,0.98,10.06,-0.1,-0.1,1.01,1000
16:50:34.738,-4.97,5.08,-149.5,-6.65,1.04,9.51,-0.11,-0.09,1.04,1000
16:50:34.749,-5.05,5.15,-149.4,-5.12,0.67,8.84,-0.1,-0.09,1.02,1000
16:50:34.761,-5.12,5.18,-149.3,-5.55,-0.24,9.39,-0.08,-0.1,1.06,1000
16:50:34.771,-5.22,5.16,-149.19,-6.4,-0.49,10.49,-0.06,-0.13,1.04,1000
16:50:34.782,-5.35,5.11,-149.07,-7.74,-0.37,12.2,-0.06,-0.12,1.04,1000
16:50:34.793,-5.52,5.02,-148.93,-10.0,0.18,13.11,-0.07,-0.11,1.05,1000
16:50:34.806,-5.67,4.97,-148.79,-10.24,0.24,12.56,-0.11,-0.09,1.04,1000
16:50:34.815,-5.77,4.99,-148.65,-10.0,-0.12,10.12,-0.11,-0.08,1.08,1000
16:50:34.827,-5.8,5.02,-148.55,-8.78,-0.98,9.15,-0.08,-0.11,1.07,1000
16:50:34.838,-5.89,4.99,-148.44,-6.46,-1.65,9.63,-0.06,-0.15,1.06,1000
16:50:34.848,-6.0,4.92,-148.34,-3.6,-1.65,10.49,-0.06,-0.16,1.05,1000
16:50:34.859,-6.13,4.82,-148.22,-1.22,-1.22,11.1,-0.05,-0.15,1.04,1000
16:50:34.871,-6.26,4.71,-148.1,0.3,-0.61,10.73,-0.06,-0.13,1.04,1000
16:50:34.881,-6.32,4.62,-147.98,1.1,0.18,10.06,-0.05,-0.11,1.04,1000
16:50:34.893,-6.34,4.53,-147.87,0.24,1.1,9.57,-0.05,-0.11,1.04,1000
16:50:34.904,-6.34,4.43,-147.77,-0.67,2.38,8.35,-0.07,-0.11,1.03,1000
16:50:34.914,-6.31,4.41,-147.69,0.3,2.38,5.98,-0.12,-0.08,1.03,1000
16:50:34.930,-6.21,4.48,-147.64,1.71,1.46,2.68,-0.11,-0.1,1.04,1000
16:50:34.937,-6.12,4.53,-147.62,2.2,0.24,2.32,-0.05,-0.12,1.07,1000
16:50:34.947,-6.07,4.49,-147.58,4.02,-0.49,4.39,-0.04,-0.15,1.03,1000
16:50:34.958,-6.1,4.4,-147.52,5.18,-0.85,7.13,-0.02,-0.18,1.04,1000
16:50:34.969,-6.22,4.22,-147.43,4.94,0.0,10.0,-0.02,-0.17,1.01,1000
16:50:34.980,-6.34,4.06,-147.31,3.84,1.71,11.22,-0.03,-0.15,1.01,1000
16:50:34.991,-6.45,3.94,-147.18,2.62,3.78,10.3,-0.06,-0.1,1.0,1000
16:50:35.002,-6.44,3.9,-147.08,2.13,4.88,8.35,-0.05,-0.07,1.0,1000
16:50:35.013,-6.34,3.9,-147.0,1.1,5.24,6.34,-0.07,-0.08,1.01,1000
16:50:35.024,-6.2,3.93,-146.94,0.55,5.12,4.63,-0.07,-0.07,1.0,1000
16:50:35.036,-6.07,3.96,-146.9,-0.49,3.84,3.17,-0.07,-0.08,1.02,1000
16:50:35.046,-5.97,3.97,-146.87,-2.07,1.77,2.26,-0.07,-0.09,1.01,1000
16:50:35.057,-5.91,3.98,-146.84,-3.05,-0.79,1.65,-0.09,-0.09,1.01,1000
16:50:35.068,-5.9,3.97,-146.83,-4.09,-4.51,0.67,-0.09,-0.1,1.01,1000
16:50:35.079,-5.9,3.95,-146.82,-5.37,-7.07,0.12,-0.08,-0.11,1.03,1000
16:50:35.090,-5.95,3.89,-146.82,-6.28,-8.6,0.12,-0.07,-0.12,1.02,1000
16:50:35.101,-6.05,3.79,-146.82,-6.22,-9.02,0.61,-0.06,-0.13,1.02,1000
16:50:35.113,-6.17,3.69,-146.82,-5.85,-7.93,0.18,-0.07,-0.12,1.02,1000
16:50:35.123,-6.27,3.63,-146.82,-4.09,-5.98,-0.55,-0.08,-0.12,1.01,1000
16:50:35.134,-6.31,3.62,-146.83,-1.59,-3.35,-1.71,-0.09,-0.1,1.04,1000
16:50:35.145,-6.29,3.64,-146.85,0.3,-0.67,-2.13,-0.07,-0.09,1.05,1000
16:50:35.156,-6.22,3.67,-146.87,1.77,2.01,-1.52,-0.06,-0.1,1.04,1000
16:50:35.167,-6.16,3.7,-146.88,3.11,4.15,0.06,-0.06,-0.11,1.04,1000
16:50:35.178,-6.1,3.73,-146.87,3.54,6.46,1.71,-0.06,-0.12,1.03,1000
16:50:35.189,-6.07,3.78,-146.85,3.11,8.29,2.74,-0.07,-0.12,1.03,1000
16:50:35.200,-6.06,3.87,-146.82,2.13,9.63,3.23,-0.08,-0.11,1.02,1000
16:50:35.215,-6.05,4.02,-146.78,0.55,9.51,2.74,-0.1,-0.1,1.03,1000
16:50:35.222,-6.03,4.17,-146.75,-1.04,7.93,1.77,-0.09,-0.09,1.02,1000
16:50:35.240,-6.01,4.31,-146.74,-2.44,5.61,0.98,-0.1,-0.1,1.03,1000
16:50:35.245,-6.02,4.43,-146.73,-3.54,2.93,0.37,-0.1,-0.11,1.02,1000
16:50:35.255,-6.07,4.52,-146.73,-4.45,0.06,-0.3,-0.09,-0.13,1.02,1000
16:50:35.266,-6.14,4.57,-146.74,-4.51,-1.59,-0.55,-0.09,-0.12,1.02,1000
16:50:35.277,-6.21,4.57,-146.74,-4.39,-2.68,-0.37,-0.08,-0.11,1.02,1000
16:50:35.288,-6.26,4.55,-146.75,-3.41,-2.5,-0.73,-0.09,-0.12,1.0,1000
16:50:35.304,-6.29,4.57,-146.76,-1.95,-2.01,-1.34,-0.1,-0.1,1.02,1000
16:50:35.311,-6.26,4.6,-146.78,1.22,-2.32,-2.32,-0.12,-0.09,1.0,1000
16:50:35.321,-6.16,4.69,-146.81,5.0,-3.35,-3.96,-0.12,-0.11,1.04,1000
16:50:35.345,-6.01,4.75,-146.85,8.17,-4.21,-2.8,-0.07,-0.09,1.05,1000
16:50:35.345,-5.87,4.71,-146.87,10.18,-3.84,0.0,-0.07,-0.12,1.03,1000
16:50:35.355,-5.76,4.62,-146.85,10.91,-3.11,2.99,-0.05,-0.13,1.02,1000
16:50:35.365,-5.71,4.53,-146.81,9.63,-0.79,5.98,-0.03,-0.12,1.02,1000
16:50:35.376,-5.71,4.37,-146.73,6.34,2.56,7.8,-0.04,-0.11,1.0,1000
16:50:35.388,-5.7,4.3,-146.65,3.29,5.43,7.74,-0.07,-0.08,0.99,1000
16:50:35.398,-5.67,4.31,-146.57,0.06,7.01,6.04,-0.09,-0.06,0.99,1000
16:50:35.411,-5.58,4.39,-146.52,-2.74,7.07,2.93,-0.1,-0.05,1.0,1000
16:50:35.420,-5.49,4.5,-146.5,-3.6,5.3,0.0,-0.12,-0.07,0.98,1000
16:50:35.431,-5.41,4.66,-146.52,-1.95,2.44,-3.29,-0.14,-0.06,1.03,1000
16:50:35.443,-5.28,4.82,-146.57,0.18,-1.71,-5.43,-0.09,-0.08,1.05,1000
16:50:35.453,-5.19,4.85,-146.62,1.95,-3.84,-4.51,-0.07,-0.12,1.04,1000
16:50:35.464,-5.21,4.77,-146.66,5.3,-4.21,-2.07,-0.05,-0.15,1.02,1000
16:50:35.475,-5.27,4.63,-146.67,7.87,-2.62,-0.18,-0.06,-0.13,1.04,1000
16:50:35.486,-5.29,4.52,-146.67,9.09,0.49,0.12,-0.05,-0.1,1.01,1000
16:50:35.497,-5.23,4.46,-146.67,8.66,4.27,0.18,-0.06,-0.08,1.02,1000
16:50:35.508,-5.13,4.46,-146.68,7.68,7.68,-2.26,-0.09,-0.06,0.99,1000
16:50:35.524,-4.98,4.57,-146.72,7.8,9.63,-5.73,-0.11,-0.04,0.98,1000
16:50:35.530,-4.78,4.75,-146.81,6.28,10.06,-9.88,-0.12,-0.03,1.02,1000
16:50:35.549,-4.56,4.92,-146.92,4.39,8.78,-12.2,-0.09,-0.02,1.01,1000
16:50:35.553,-4.33,5.03,-147.06,1.65,6.4,-13.17,-0.08,-0.05,1.02,1000
16:50:35.563,-4.23,5.07,-147.21,0.98,3.48,-14.45,-0.08,-0.12,0.98,1000
16:50:35.574,-4.27,5.07,-147.37,0.98,1.46,-15.61,-0.07,-0.11,1.02,1000
16:50:35.585,-4.39,5.02,-147.55,1.65,0.24,-17.5,-0.09,-0.14,1.01,1000
16:50:35.596,-4.52,5.03,-147.76,3.66,-0.91,-21.1,-0.15,-0.12,1.06,1000
16:50:35.607,-4.59,5.13,-148.02,6.71,-3.41,-24.57,-0.13,-0.07,1.07,1000
16:50:35.618,-4.5,5.17,-148.31,9.27,-7.5,-24.15,-0.1,-0.09,1.08,1000
16:50:35.630,-4.43,5.13,-148.55,9.63,-10.73,-22.62,-0.11,-0.11,1.07,1000
16:50:35.641,-4.4,5.01,-148.79,8.48,-13.41,-17.74,-0.05,-0.12,1.04,1000
16:50:35.653,-4.46,4.79,-148.95,5.43,-14.02,-12.26,-0.03,-0.13,1.03,1000
16:50:35.662,-4.55,4.51,-149.06,0.85,-12.2,-6.95,-0.05,-0.13,0.99,1000
16:50:35.673,-4.76,4.33,-149.14,-0.73,-8.84,-6.4,-0.12,-0.12,0.99,1000
16:50:35.684,-4.88,4.32,-149.21,-1.34,-5.98,-7.8,-0.11,-0.05,1.01,1000
16:50:35.695,-4.86,4.42,-149.3,-1.83,-3.48,-10.06,-0.14,-0.05,1.03,1000
16:50:35.706,-4.76,4.59,-149.43,0.18,-2.2,-10.67,-0.12,-0.04,1.01,1000
16:50:35.718,-4.64,4.68,-149.53,1.89,-2.07,-8.29,-0.07,-0.06,1.05,1000
16:50:35.728,-4.55,4.68,-149.6,2.87,-2.2,-3.6,-0.05,-0.11,1.0,1000
16:50:35.739,-4.56,4.59,-149.61,3.35,-1.59,2.99,-0.03,-0.13,1.01,1000
16:50:35.751,-4.66,4.43,-149.54,1.77,0.37,9.15,-0.04,-0.11,1.0,1000
16:50:35.761,-4.76,4.34,-149.43,-0.61,2.32,11.95,-0.08,-0.09,0.98,1000
16:50:35.772,-4.83,4.33,-149.3,-3.17,3.35,12.2,-0.1,-0.06,0.99,1000
16:50:35.784,-4.82,4.43,-149.17,-5.91,4.09,10.67,-0.13,-0.03,1.01,1000
16:50:35.794,-4.74,4.59,-149.05,-8.23,3.72,8.17,-0.11,-0.02,1.02,1000
16:50:35.805,-4.64,4.72,-148.97,-10.37,3.54,7.44,-0.08,-0.05,1.02,1000
16:50:35.816,-4.62,4.79,-148.89,-11.28,3.84,7.68,-0.07,-0.08,1.01,1000
16:50:35.834,-4.69,4.81,-148.81,-11.95,4.39,8.23,-0.06,-0.1,1.02,1000
16:50:35.839,-4.83,4.82,-148.71,-12.74,5.43,8.48,-0.07,-0.11,1.02,1000
16:50:35.850,-5.01,4.85,-148.62,-12.44,6.89,7.5,-0.1,-0.11,1.03,1000
16:50:35.862,-5.18,4.94,-148.55,-11.22,7.32,5.12,-0.12,-0.09,1.04,1000
16:50:35.871,-5.29,5.12,-148.51,-8.72,6.04,1.52,-0.15,-0.08,1.06,1000
16:50:35.882,-5.32,5.32,-148.5,-6.4,3.9,-0.79,-0.14,-0.09,1.07,1000
16:50:35.893,-5.33,5.51,-148.52,-3.48,1.52,-1.83,-0.13,-0.11,1.07,1000
16:50:35.904,-5.36,5.62,-148.54,-0.43,-0.98,-0.91,-0.1,-0.13,1.06,1000
16:50:35.915,-5.44,5.63,-148.54,1.89,-3.23,1.1,-0.09,-0.15,1.05,1000
16:50:35.926,-5.53,5.59,-148.52,2.99,-3.84,3.17,-0.09,-0.14,1.04,1000
16:50:35.937,-5.62,5.53,-148.48,3.78,-3.78,3.9,-0.11,-0.13,1.02,1000
16:50:35.956,-5.67,5.54,-148.45,3.84,-2.99,2.01,-0.15,-0.09,1.04,1000
16:50:35.959,-5.63,5.63,-148.44,2.93,-2.07,-0.43,-0.12,-0.08,1.04,1000
16:50:35.970,-5.57,5.71,-148.45,2.56,-1.52,-1.59,-0.13,-0.1,1.04,1000
16:50:35.981,-5.52,5.79,-148.47,2.99,-1.83,-1.95,-0.12,-0.08,1.05,1000
16:50:35.992,-5.44,5.83,-148.48,2.8,-3.6,-0.06,-0.1,-0.1,1.05,1000
16:50:36.003,-5.4,5.79,-148.46,2.2,-5.61,3.41,-0.08,-0.12,1.02,1000
16:50:36.014,-5.42,5.68,-148.41,1.77,-6.83,7.38,-0.06,-0.11,1.02,1000
16:50:36.025,-5.45,5.49,-148.31,0.24,-7.68,11.34,-0.06,-0.1,1.0,1000
16:50:36.038,-5.47,5.28,-148.16,-2.32,-8.96,13.29,-0.06,-0.07,0.99,1000
16:50:36.047,-5.45,5.11,-148.03,-4.15,-10.12,13.29,-0.07,-0.07,0.98,1000
16:50:36.062,-5.43,4.95,-147.9,-5.55,-11.65,10.43,-0.1,-0.08,0.99,1000
16:50:36.069,-5.42,4.83,-147.8,-4.94,-13.48,5.91,-0.12,-0.08,0.99,1000
16:50:36.080,-5.38,4.79,-147.75,-4.27,-14.39,1.83,-0.11,-0.06,1.01,1000
16:50:36.091,-5.3,4.72,-147.75,-5.06,-14.09,-1.1,-0.08,-0.09,1.03,1000
16:50:36.102,-5.3,4.59,-147.77,-5.37,-13.66,-1.4,-0.06,-0.11,1.02,1000
16:50:36.113,-5.37,4.43,-147.78,-4.82,-13.29,-0.55,-0.06,-0.13,1.03,1000
16:50:36.124,-5.51,4.22,-147.78,-4.88,-12.99,2.44,-0.01,-0.15,1.03,1000
16:50:36.144,-5.69,3.94,-147.73,-5.79,-11.89,7.01,0.01,-0.16,1.02,1000
16:50:36.148,-5.94,3.59,-147.61,-6.89,-10.06,12.56,-0.0,-0.15,1.0,1000
16:50:36.164,-6.17,3.29,-147.48,-6.89,-8.84,14.45,-0.02,-0.13,0.99,1000
16:50:36.168,-6.42,3.04,-147.3,-6.34,-8.6,13.96,-0.08,-0.16,0.96,1000
16:50:36.179,-6.6,2.98,-147.18,-3.78,-9.63,10.37,-0.12,-0.1,1.0,1000
16:50:36.190,-6.65,3.05,-147.08,-1.65,-11.4,7.07,-0.08,-0.1,1.05,1000
16:50:36.202,-6.61,3.01,-147.0,-0.73,-12.87,8.23,-0.01,-0.12,1.08,1000
16:50:36.213,-6.66,2.8,-146.88,0.06,-12.8,12.93,0.01,-0.21,1.06,1000
16:50:36.226,-6.82,2.53,-146.71,0.49,-11.77,18.78,0.04,-0.21,1.06,1000
16:50:36.234,-7.03,2.22,-146.5,-0.24,-10.43,24.27,0.05,-0.2,1.05,1000
16:50:36.245,-7.27,1.84,-146.18,-2.56,-8.6,28.72,0.03,-0.16,1.03,1000
16:50:36.263,-7.46,1.52,-145.86,-5.0,-7.32,29.76,-0.01,-0.12,0.99,1000
16:50:36.267,-7.57,1.37,-145.56,-4.51,-6.71,27.99,-0.07,-0.1,0.97,1000
16:50:36.279,-7.57,1.35,-145.28,-4.51,-7.07,23.9,-0.09,-0.04,1.02,1000
16:50:36.290,-7.4,1.43,-145.01,-1.83,-9.15,20.49,-0.12,-0.07,1.0,1000
16:50:36.300,-7.25,1.55,-144.82,6.1,-12.26,16.89,-0.16,-0.09,1.0,1000
16:50:36.311,-6.94,1.75,-144.63,16.83,-16.71,17.62,-0.07,-0.05,1.08,1000
16:50:36.322,-6.47,1.73,-144.41,25.85,-20.37,25.3,0.0,-0.09,1.06,1000
16:50:36.333,-6.09,1.5,-144.08,37.56,-22.07,35.85,0.04,-0.2,0.98,1000
16:50:36.345,-5.83,1.1,-143.62,47.01,-21.1,48.54,0.11,-0.17,0.98,1000
16:50:36.355,-5.53,0.57,-143.02,50.37,-18.17,62.26,0.12,-0.15,0.94,1000
16:50:36.372,-5.26,-0.09,-142.28,46.83,-13.54,72.13,0.11,-0.09,0.9,1000
16:50:36.377,-4.9,-0.52,-141.46,39.21,-7.93,77.74,0.05,-0.05,0.86,1000
16:50:36.389,-4.55,-0.86,-140.6,31.22,-1.71,77.93,-0.02,-0.04,0.81,1000
16:50:36.399,-4.09,-0.76,-139.7,18.05,5.24,70.98,-0.11,0.07,0.92,1000
16:50:36.410,-3.5,-0.33,-138.96,3.66,11.83,61.77,-0.12,0.15,0.91,1000
16:50:36.421,-2.84,0.25,-138.38,-9.33,16.52,53.72,-0.12,0.16,0.96,1000
16:50:36.432,-2.24,0.89,-137.82,-23.29,19.09,47.99,-0.08,0.08,0.98,1000
16:50:36.443,-2.07,1.37,-137.31,-36.52,17.8,44.94,-0.05,-0.03,1.0,1000
16:50:36.454,-2.32,1.69,-136.81,-45.91,13.9,44.82,-0.04,-0.07,1.0,1000
16:50:36.468,-2.8,1.93,-136.32,-52.56,7.38,44.94,-0.07,-0.07,1.04,1000
16:50:36.476,-3.41,2.08,-135.79,-56.16,-0.67,43.66,-0.07,-0.07,1.06,1000
16:50:36.489,-3.99,2.16,-135.31,-58.66,-7.62,41.89,-0.07,-0.06,1.09,1000
16:50:36.499,-4.49,2.18,-134.91,-58.17,-13.11,38.35,-0.1,-0.08,1.04,1000
16:50:36.514,-5.03,2.23,-134.51,-51.04,-17.44,31.34,-0.19,-0.08,1.02,1000
16:50:36.520,-5.46,2.5,-134.2,-36.83,-21.28,19.09,-0.24,-0.06,1.09,1000
16:50:36.536,-5.57,2.86,-134.05,-25.43,-23.35,11.46,-0.16,-0.04,1.15,1000
16:50:36.543,-5.61,2.96,-133.94,-10.06,-27.44,7.2,-0.09,-0.14,1.19,1000
16:50:36.554,-5.59,2.92,-133.87,3.11,-29.27,8.66,-0.03,-0.14,1.2,1000
16:50:36.571,-5.48,2.66,-133.75,14.76,-29.15,13.9,0.02,-0.14,1.22,1000
16:50:36.577,-5.32,2.23,-133.54,22.93,-26.71,20.49,0.03,-0.18,1.14,1000
16:50:36.585,-5.21,1.81,-133.32,24.63,-22.56,24.33,0.05,-0.1,1.12,1000
16:50:36.597,-4.98,1.38,-133.04,22.74,-16.04,26.16,0.03,-0.08,1.05,1000
16:50:36.608,-4.75,1.11,-132.76,20.85,-7.26,23.78,-0.03,-0.08,0.99,1000
16:50:36.619,-4.5,1.07,-132.52,15.91,1.65,18.29,-0.04,-0.01,1.03,1000
16:50:36.635,-4.12,1.18,-132.33,6.52,11.1,13.23,-0.0,0.0,1.02,1000
16:50:36.641,-3.86,1.3,-132.21,-1.28,16.16,10.67,0.01,-0.02,1.0,1000
16:50:36.652,-3.65,1.43,-132.1,-7.26,18.6,9.57,0.0,-0.0,0.99,1000
16:50:36.666,-3.5,1.55,-132.0,-12.2,18.05,9.27,0.0,-0.01,1.0,1000
16:50:36.678,-3.48,1.69,-131.89,-16.22,15.73,9.02,-0.03,-0.07,1.0,1000
16:50:36.686,-3.56,1.82,-131.8,-16.52,13.29,8.11,-0.06,-0.08,1.0,1000
16:50:36.696,-3.68,2.0,-131.72,-14.94,10.55,6.89,-0.05,-0.08,1.03,1000
16:50:36.707,-3.84,2.18,-131.64,-13.48,7.56,6.1,-0.06,-0.12,1.04,1000
16:50:36.718,-4.04,2.32,-131.58,-11.34,5.43,5.61,-0.07,-0.13,1.03,1000
16:50:36.729,-4.28,2.47,-131.52,-8.84,2.8,5.3,-0.07,-0.12,1.05,1000
16:50:36.742,-4.46,2.59,-131.46,-7.07,1.16,5.37,-0.06,-0.13,1.04,1000
16:50:36.755,-4.64,2.67,-131.4,-5.12,0.06,6.16,-0.06,-0.15,1.03,1000
16:50:36.762,-4.8,2.77,-131.33,-1.89,-0.61,5.91,-0.1,-0.11,1.04,1000
16:50:36.778,-4.9,2.92,-131.27,1.28,-0.73,5.3,-0.07,-0.11,1.04,1000
16:50:36.784,-4.95,3.02,-131.21,4.27,-1.04,5.91,-0.07,-0.15,1.04,1000
16:50:36.795,-5.02,3.15,-131.14,10.79,-1.65,5.43,-0.11,-0.13,1.02,1000
16:50:36.806,-5.03,3.29,-131.09,15.61,-2.2,6.52,-0.07,-0.11,1.08,1000
16:50:36.818,-4.96,3.33,-131.0,16.83,-3.23,10.37,-0.04,-0.16,1.06,1000
16:50:36.828,-4.93,3.3,-130.86,17.13,-3.05,14.63,-0.01,-0.17,1.0,1000
16:50:36.840,-4.95,3.19,-130.67,16.04,-2.32,20.55,0.01,-0.15,1.01,1000
16:50:36.854,-4.96,3.07,-130.43,13.54,-0.79,24.7,-0.03,-0.13,0.96,1000
16:50:36.862,-5.01,2.98,-130.15,10.24,1.22,26.16,-0.03,-0.08,0.98,1000
16:50:36.875,-4.98,2.93,-129.85,4.15,3.11,27.56,-0.02,-0.07,0.97,1000
16:50:36.887,-4.96,2.89,-129.55,-1.28,4.76,27.68,-0.03,-0.07,0.95,1000
16:50:36.894,-4.98,2.87,-129.24,-6.95,5.98,27.87,-0.02,-0.08,0.96,1000
16:50:36.905,-5.06,2.86,-128.93,-11.95,7.2,28.35,-0.01,-0.09,0.96,1000
16:50:36.915,-5.2,2.85,-128.62,-16.16,7.8,28.17,-0.03,-0.09,0.98,1000
16:50:36.928,-5.4,2.83,-128.31,-19.7,7.5,28.17,-0.02,-0.13,0.98,1000
16:50:36.938,-5.69,2.81,-128.0,-21.16,6.83,28.23,-0.03,-0.15,0.99,1000
16:50:36.951,-6.02,2.83,-127.69,-20.18,5.3,27.38,-0.07,-0.13,1.02,1000
16:50:36.960,-6.33,2.89,-127.4,-17.26,3.23,26.89,-0.04,-0.17,1.05,1000
16:50:36.981,-6.66,2.88,-127.1,-15.49,1.52,28.23,-0.01,-0.18,1.09,1000
16:50:36.982,-6.97,2.8,-126.77,-13.84,-0.49,31.16,0.01,-0.21,1.08,1000
16:50:36.993,-7.34,2.6,-126.41,-13.05,-2.56,34.27,0.03,-0.21,1.08,1000
16:50:37.004,-7.69,2.34,-126.02,-13.48,-3.6,36.59,0.01,-0.19,1.07,1000
16:50:37.015,-7.99,2.12,-125.62,-12.99,-3.96,35.3,-0.04,-0.17,1.05,1000
16:50:37.026,-8.19,2.05,-125.26,-10.24,-4.21,29.63,-0.09,-0.13,1.06,1000
16:50:37.037,-8.29,2.11,-124.95,-7.01,-4.27,22.5,-0.08,-0.15,1.09,1000
16:50:37.049,-8.32,2.17,-124.74,-5.12,-4.7,19.02,-0.04,-0.15,1.11,1000
16:50:37.060,-8.36,2.16,-124.54,-3.54,-6.59,17.07,-0.04,-0.21,1.09,1000
16:50:37.070,-8.46,2.09,-124.35,-1.4,-9.21,17.01,-0.01,-0.2,1.06,1000
16:50:37.084,-8.6,1.93,-124.15,0.37,-13.35,17.44,-0.03,-0.19,1.05,1000
16:50:37.092,-8.68,1.78,-123.97,1.28,-16.22,16.77,-0.03,-0.16,1.01,1000
16:50:37.103,-8.71,1.6,-123.79,1.95,-18.17,16.46,-0.03,-0.12,1.01,1000
16:50:37.116,-8.64,1.4,-123.6,1.28,-19.02,15.91,-0.02,-0.1,0.99,1000
16:50:37.125,-8.48,1.24,-123.44,1.1,-18.96,15.18,-0.04,-0.08,0.97,1000
16:50:37.136,-8.26,1.13,-123.28,-0.49,-18.48,12.99,-0.07,-0.06,0.97,1000
16:50:37.147,-7.96,1.11,-123.15,-2.13,-18.17,11.16,-0.07,-0.06,0.97,1000
16:50:37.161,-7.72,1.09,-123.02,-4.45,-18.96,10.43,-0.06,-0.07,0.96,1000
16:50:37.168,-7.55,1.06,-122.91,-5.91,-20.43,11.16,-0.05,-0.09,0.95,1000
16:50:37.187,-7.46,0.99,-122.78,-7.32,-22.01,13.17,-0.04,-0.12,0.96,1000
16:50:37.191,-7.46,0.87,-122.61,-9.02,-22.87,16.16,-0.04,-0.12,0.94,1000
16:50:37.202,-7.51,0.8,-122.44,-9.63,-22.74,18.54,-0.05,-0.14,0.96,1000
16:50:37.213,-7.6,0.68,-122.2,-9.82,-22.07,21.95,-0.02,-0.12,0.96,1000
16:50:37.223,-7.68,0.56,-121.97,-10.55,-20.49,25.43,0.0,-0.13,0.96,1000
16:50:37.235,-7.81,0.36,-121.64,-10.24,-17.68,30.18,0.01,-0.15,0.94,1000
16:50:37.248,-7.93,0.19,-121.29,-6.95,-15.61,32.99,-0.04,-0.13,0.92,1000
16:50:37.263,-7.98,0.13,-120.96,-3.54,-13.41,33.05,-0.06,-0.12,0.96,1000
16:50:37.268,-7.96,0.15,-120.59,-1.22,-10.24,33.54,-0.02,-0.11,1.01,1000
16:50:37.280,-7.89,0.14,-120.18,-0.67,-5.3,35.24,0.0,-0.13,1.01,1000
16:50:37.290,-7.85,0.1,-119.79,-1.34,-2.13,37.07,0.05,-0.14,1.01,1000
16:50:37.301,-7.84,0.01,-119.41,-3.41,0.43,38.78,0.06,-0.13,1.01,1000
16:50:37.312,-7.86,-0.15,-118.97,-7.74,3.9,39.63,0.07,-0.13,1.02,1000
16:50:37.323,-7.9,-0.23,-118.54,-10.37,7.8,37.62,0.02,-0.11,0.97,1000
16:50:37.333,-7.92,-0.23,-118.16,-12.99,11.16,31.59,0.03,-0.08,1.01,1000
16:50:37.345,-7.87,-0.22,-117.85,-14.88,13.6,21.46,0.03,-0.06,0.96,1000
16:50:37.357,-7.75,-0.15,-117.71,-15.43,10.12,2.87,-0.02,-0.07,0.94,1000
16:50:37.368,-7.71,-0.09,-117.75,-15.85,1.95,-9.76,0.02,-0.1,1.03,1000
16:50:37.378,-7.71,-0.16,-117.86,-17.68,-6.16,-13.11,0.02,-0.17,1.05,1000
16:50:37.392,-7.87,-0.33,-118.0,-18.96,-15.73,-10.55,0.03,-0.17,1.0,1000
16:50:37.400,-8.1,-0.57,-118.09,-21.28,-25.79,-6.28,0.03,-0.14,0.95,1000
16:50:37.411,-8.32,-0.85,-118.14,-23.11,-29.63,-3.05,0.07,-0.12,0.97,1000
16:50:37.422,-8.5,-1.13,-118.17,-24.57,-28.66,-0.91,-0.01,-0.11,1.0,1000
16:50:37.433,-8.66,-1.43,-118.16,-28.66,-25.98,2.5,0.08,-0.12,1.0,1000
16:50:37.444,-8.87,-1.74,-118.11,-30.61,-16.77,6.52,0.07,-0.16,1.02,1000
16:50:37.455,-9.12,-1.86,-118.03,-28.78,-3.23,6.89,0.06,-0.21,1.06,1000
16:50:37.468,-9.44,-1.79,-117.95,-25.18,14.7,7.32,0.1,-0.21,1.11,1000
16:50:37.477,-9.75,-1.68,-117.86,-22.8,26.22,9.57,0.07,-0.26,1.12,1000
16:50:37.490,-10.11,-1.4,-117.75,-17.93,36.22,10.73,0.03,-0.29,1.08,1000
16:50:37.500,-10.51,-1.03,-117.62,-12.38,39.39,12.68,-0.0,-0.29,1.1,1000
16:50:37.510,-10.89,-0.62,-117.47,-8.66,34.27,14.51,-0.04,-0.26,1.01,1000
16:50:37.521,-11.2,-0.19,-117.31,-3.54,25.55,13.54,-0.11,-0.24,0.99,1000
16:50:37.531,-11.41,0.38,-117.19,0.55,15.91,8.54,-0.17,-0.21,1.03,1000
16:50:37.543,-11.44,0.84,-117.11,3.72,4.82,4.76,-0.1,-0.22,1.02,1000
16:50:37.557,-11.45,1.15,-117.08,7.44,-5.91,1.59,-0.08,-0.23,1.0,1000
16:50:37.565,-11.42,1.26,-117.07,10.24,-15.18,-0.37,-0.01,-0.22,1.03,1000
16:50:37.576,-11.4,1.11,-117.08,10.12,-19.09,0.06,0.05,-0.28,1.06,1000
16:50:37.598,-11.44,0.83,-117.07,8.35,-17.13,1.46,0.08,-0.3,1.02,1000
16:50:37.598,-11.6,0.48,-117.05,4.51,-13.78,2.93,0.03,-0.26,1.02,1000
16:50:37.609,-11.77,0.24,-117.01,-1.28,-10.43,3.23,-0.01,-0.23,1.01,1000
16:50:37.620,-11.9,0.19,-116.98,-5.12,-7.68,0.67,-0.07,-0.23,0.97,1000
16:50:37.630,-12.03,0.28,-116.99,-7.01,-3.23,-2.01,-0.05,-0.21,1.04,1000
16:50:37.642,-12.13,0.42,-117.02,-8.96,0.06,-3.66,-0.02,-0.23,1.02,1000
16:50:37.652,-12.26,0.53,-117.06,-8.29,0.91,-4.33,-0.05,-0.25,1.02,1000
16:50:37.666,-12.39,0.64,-117.11,-6.52,-1.34,-4.82,0.02,-0.24,1.08,1000
16:50:37.676,-12.47,0.63,-117.17,0.49,4.09,-5.61,0.15,-0.31,1.16,1000
16:50:37.686,-12.51,0.45,-117.26,14.57,13.54,-9.39,0.11,-0.33,1.25,1000
16:50:37.696,-12.46,0.32,-117.36,25.85,22.32,-11.89,0.01,-0.32,1.17,1000
16:50:37.708,-12.29,0.47,-117.51,34.27,25.24,-11.71,-0.07,-0.29,1.13,1000
16:50:37.719,-12.12,0.78,-117.62,35.98,20.24,-10.0,-0.14,-0.26,1.04,1000
16:50:37.730,-11.9,1.17,-117.72,31.28,-2.38,-8.78,-0.14,-0.18,0.92,1000
16:50:37.741,-11.65,1.41,-117.82,23.11,-31.52,-10.37,-0.17,-0.17,0.84,1000
16:50:37.752,-11.49,1.47,-117.94,12.44,-56.77,-11.52,-0.1,-0.2,0.97,1000
16:50:37.763,-11.46,1.12,-118.06,2.8,-69.94,-10.3,-0.0,-0.25,0.93,1000
16:50:37.776,-11.57,0.49,-118.17,-2.87,-70.18,-7.99,0.08,-0.24,1.02,1000
16:50:37.784,-11.76,-0.31,-118.24,-9.21,-62.26,-4.15,0.14,-0.23,0.97,1000
16:50:37.801,-11.98,-1.25,-118.26,-12.8,-49.02,0.43,0.19,-0.21,1.0,1000
16:50:37.807,-12.15,-2.1,-118.23,-13.72,-32.01,4.15,0.18,-0.18,1.0,1000
16:50:37.821,-12.21,-2.84,-118.18,-11.83,-15.24,6.52,0.16,-0.16,1.0,1000
16:50:37.828,-12.18,-3.29,-118.1,-10.18,-1.83,7.68,0.14,-0.12,0.95,1000
16:50:37.841,-12.02,-3.52,-118.01,-3.48,11.65,8.29,-0.08,-0.17,1.03,1000
16:50:37.851,-11.9,-3.33,-117.9,1.89,15.06,12.2,0.05,-0.15,0.98,1000
16:50:37.863,-11.75,-3.16,-117.75,5.37,18.11,17.13,0.08,-0.23,0.94,1000
16:50:37.876,-11.69,-2.87,-117.54,11.04,26.65,21.77,0.0,-0.24,1.09,1000
16:50:37.883,-11.56,-2.48,-117.28,16.52,34.94,27.44,0.01,-0.2,1.05,1000
16:50:37.894,-11.33,-1.99,-116.96,21.1,40.61,30.37,0.0,-0.16,1.11,1000
16:50:37.906,-10.97,-1.43,-116.63,22.99,43.48,29.82,0.0,-0.14,1.05,1000
16:50:37.917,-10.54,-0.9,-116.32,22.68,44.27,26.1,0.03,-0.13,1.1,1000
16:50:37.928,-10.08,-0.44,-116.05,20.85,44.7,20.24,0.04,-0.15,1.06,1000
16:50:37.938,-9.72,-0.07,-115.87,17.93,42.07,11.89,0.06,-0.15,1.07,1000
16:50:37.950,-9.44,0.19,-115.78,15.12,39.45,3.96,0.06,-0.2,1.1,1000
16:50:37.962,-9.29,0.34,-115.77,15.55,37.93,-2.38,0.07,-0.22,1.14,1000
16:50:37.975,-9.18,0.52,-115.83,20.3,39.94,-9.7,0.1,-0.24,1.18,1000
16:50:37.982,-9.04,0.67,-115.97,26.22,44.45,-17.87,0.1,-0.23,1.22,1000
16:50:37.993,-8.85,0.87,-116.21,32.13,50.55,-26.71,0.05,-0.23,1.25,1000
16:50:38.005,-8.58,1.18,-116.54,36.16,53.96,-34.76,-0.03,-0.16,1.26,1000
16:50:38.017,-8.17,1.66,-116.96,36.83,51.83,-42.44,-0.08,-0.1,1.26,1000
16:50:38.030,-7.69,2.19,-117.47,36.28,44.33,-50.3,-0.11,-0.1,1.23,1000
16:50:38.038,-7.15,2.69,-118.05,37.2,37.38,-55.91,-0.09,-0.11,1.25,1000
16:50:38.048,-6.63,3.12,-118.68,40.06,31.71,-58.41,-0.07,-0.13,1.23,1000
16:50:38.060,-6.12,3.46,-119.32,44.7,27.32,-57.32,-0.07,-0.14,1.23,1000
16:50:38.071,-5.64,3.74,-119.94,49.02,23.84,-54.21,-0.1,-0.15,1.2,1000
16:50:38.083,-5.17,3.98,-120.51,51.16,22.8,-48.66,-0.06,-0.15,1.2,1000
16:50:38.093,-4.76,4.15,-121.01,50.37,27.13,-41.65,-0.01,-0.13,1.2,1000
16:50:38.107,-4.33,4.31,-121.43,47.32,36.4,-33.96,-0.01,-0.1,1.18,1000
16:50:38.115,-3.93,4.53,-121.78,41.95,45.0,-28.35,-0.04,-0.09,1.16,1000
16:50:38.126,-3.63,4.83,-122.06,32.44,50.73,-21.71,-0.1,-0.1,1.15,1000
16:50:38.137,-3.45,5.33,-122.25,19.09,51.77,-12.68,-0.19,-0.1,1.14,1000
16:50:38.148,-3.41,6.03,-122.35,5.43,48.84,-3.9,-0.23,-0.06,1.14,1000
16:50:38.158,-3.41,6.77,-122.35,-8.6,45.55,3.96,-0.22,-0.01,1.17,1000
16:50:38.170,-3.44,7.43,-122.28,-19.7,41.89,8.96,-0.21,0.01,1.18,1000
16:50:38.181,-3.51,8.02,-122.16,-27.87,33.96,13.29,-0.25,0.01,1.18,1000
16:50:38.195,-3.62,8.53,-121.99,-34.39,22.2,18.66,-0.27,-0.0,1.17,1000
16:50:38.204,-3.76,8.96,-121.76,-39.88,12.5,23.72,-0.26,-0.02,1.21,1000
16:50:38.214,-4.01,9.22,-121.48,-45.61,5.67,28.29,-0.23,-0.02,1.22,1000
16:50:38.225,-4.26,9.4,-121.15,-51.16,-0.3,29.94,-0.23,-0.02,1.2,1000
16:50:38.236,-4.55,9.5,-120.83,-54.7,-7.32,29.27,-0.24,-0.05,1.16,1000
16:50:38.247,-4.94,9.56,-120.51,-56.59,-13.78,27.44,-0.25,-0.08,1.14,1000
16:50:38.258,-5.43,9.6,-120.22,-57.13,-18.41,25.67,-0.25,-0.12,1.12,1000
16:50:38.270,-6.07,9.56,-119.92,-56.59,-20.3,24.45,-0.22,-0.14,1.08,1000
16:50:38.281,-6.63,9.5,-119.68,-55.49,-20.37,22.93,-0.23,-0.16,1.07,1000
16:50:38.291,-7.26,9.48,-119.44,-53.05,-18.96,21.65,-0.24,-0.17,1.04,1000
16:50:38.314,-7.83,9.55,-119.2,-50.24,-16.65,21.65,-0.26,-0.13,1.02,1000
16:50:38.314,-8.47,9.7,-118.93,-48.11,-12.93,24.27,-0.32,-0.31,0.99,1000
16:50:38.324,-9.11,9.91,-118.68,-44.88,-7.68,27.38,-0.3,-0.33,0.98,1000
16:50:38.335,-9.9,10.22,-118.36,-42.56,0.73,29.63,-0.22,-0.27,0.98,1000
16:50:38.346,-10.55,10.63,-118.05,-38.84,12.62,25.98,-0.24,-0.12,0.95,1000
16:50:38.357,-10.93,10.96,-117.79,-37.87,20.98,21.65,-0.16,-0.1,0.96,1000
16:50:38.368,-11.22,11.3,-117.57,-39.7,28.29,17.93,-0.24,-0.14,1.01,1000
16:50:38.381,-11.41,11.79,-117.38,-40.12,33.9,16.28,-0.26,-0.16,0.93,1000
16:50:38.390,-11.74,12.36,-117.2,-43.17,36.52,17.32,-0.25,-0.21,1.01,1000
16:50:38.400,-12.17,12.92,-117.0,-43.66,37.74,20.12,-0.3,-0.24,0.96,1000
16:50:38.412,-12.68,13.54,-116.76,-42.56,36.28,24.39,-0.3,-0.3,1.02,1000
16:50:38.423,-13.25,14.07,-116.46,-37.2,33.17,29.21,-0.26,-0.3,0.99,1000
16:50:38.434,-13.78,14.46,-116.13,-26.04,28.05,31.71,-0.26,-0.33,1.01,1000
16:50:38.445,-14.21,14.77,-115.78,-12.13,21.71,32.93,-0.29,-0.33,1.01,1000
16:50:38.456,-14.46,15.0,-115.38,3.11,15.3,31.77,-0.25,-0.31,1.04,1000
16:50:38.466,-14.5,15.11,-115.07,14.7,11.28,29.76,-0.29,-0.3,1.03,1000
16:50:38.481,-14.4,15.22,-114.76,25.73,6.59,28.23,-0.29,-0.3,1.01,1000
16:50:38.490,-14.21,15.33,-114.45,33.72,1.77,27.93,-0.34,-0.33,1.01,1000
16:50:38.499,-13.99,15.46,-114.14,40.43,-2.56,29.63,-0.37,-0.37,1.02,1000
16:50:38.511,-13.81,15.62,-113.8,46.83,-4.51,31.89,-0.32,-0.34,1.03,1000
16:50:38.522,-13.54,15.73,-113.44,52.26,-5.49,31.95,-0.33,-0.29,1.03,1000
16:50:38.532,-13.14,15.81,-113.1,57.13,-7.13,30.12,-0.32,-0.26,1.02,1000
16:50:38.544,-12.56,15.84,-112.76,60.37,-8.72,26.77,-0.29,-0.24,1.02,1000
16:50:38.555,-12.06,15.83,-112.5,60.61,-10.73,24.51,-0.29,-0.22,0.99,1000
16:50:38.565,-11.49,15.78,-112.24,58.78,-14.09,22.56,-0.31,-0.22,0.98,1000
16:50:38.576,-10.99,15.75,-111.99,55.0,-17.62,22.38,-0.32,-0.23,0.96,1000
16:50:38.589,-10.55,15.77,-111.72,48.66,-21.46,22.99,-0.37,-0.23,0.96,1000
16:50:38.598,-10.24,15.77,-111.49,41.46,-22.8,23.84,-0.31,-0.22,0.97,1000
16:50:38.620,-9.98,15.74,-111.23,33.48,-21.46,22.44,-0.28,-0.17,0.98,1000
16:50:38.621,-9.72,15.66,-111.0,25.79,-19.94,19.15,-0.29,-0.14,0.95,1000
16:50:38.632,-9.46,15.57,-110.8,19.94,-19.21,15.24,-0.27,-0.14,0.95,1000
16:50:38.643,-9.23,15.45,-110.66,15.06,-17.87,10.61,-0.23,-0.11,0.93,1000
16:50:38.653,-8.95,15.28,-110.57,11.77,-16.34,5.12,-0.22,-0.08,0.92,1000
16:50:38.665,-8.66,15.09,-110.54,8.72,-14.94,-0.98,-0.2,-0.05,0.9,1000
16:50:38.676,-8.32,14.86,-110.58,4.57,-11.83,-6.1,-0.17,-0.04,0.88,1000
16:50:38.688,-7.97,14.62,-110.66,-0.3,-6.04,-9.82,-0.15,-0.04,0.88,1000
16:50:38.699,-7.75,14.46,-110.78,-5.85,2.26,-12.2,-0.17,-0.04,0.88,1000
16:50:38.709,-7.56,14.38,-110.93,-11.1,12.01,-11.46,-0.2,-0.11,0.91,1000
16:50:38.729,-7.53,14.38,-111.04,-14.27,21.22,-9.39,-0.17,-0.11,0.94,1000
16:50:38.731,-7.57,14.46,-111.14,-15.91,31.65,-8.17,-0.18,-0.08,0.98,1000
16:50:38.742,-7.57,14.61,-111.23,-15.73,38.66,-9.21,-0.19,-0.06,0.99,1000
16:50:38.753,-7.46,14.81,-111.35,-15.55,42.62,-13.35,-0.19,-0.02,1.02,1000
16:50:38.763,-7.26,15.01,-111.51,-16.22,43.78,-16.95,-0.2,-0.04,1.01,1000
16:50:38.775,-7.05,15.22,-111.71,-17.13,42.32,-18.41,-0.24,-0.08,1.0,1000
16:50:38.785,-7.0,15.51,-111.9,-18.11,39.51,-17.01,-0.25,-0.11,1.0,1000
16:50:38.798,-7.07,15.78,-112.09,-18.96,35.98,-13.9,-0.22,-0.11,1.02,1000
16:50:38.808,-7.15,15.92,-112.22,-18.66,32.44,-11.1,-0.26,-0.11,1.02,1000
16:50:38.826,-7.25,16.1,-112.33,-17.56,27.13,-8.05,-0.3,-0.14,1.03,1000
16:50:38.831,-7.38,16.31,-112.4,-16.22,22.44,-4.51,-0.28,-0.14,1.05,1000
16:50:38.841,-7.5,16.43,-112.43,-14.51,18.84,-2.13,-0.26,-0.12,1.03,1000
16:50:38.853,-7.57,16.52,-112.45,-13.11,14.09,-1.46,-0.25,-0.1,1.01,1000
16:50:38.864,-7.59,16.51,-112.47,-12.93,8.66,-0.79,-0.25,-0.1,0.99,1000
16:50:38.874,-7.6,16.41,-112.47,-12.87,4.33,0.49,-0.23,-0.12,0.97,1000
16:50:38.885,-7.65,16.3,-112.45,-12.2,1.16,3.66,-0.27,-0.15,0.95,1000
16:50:38.896,-7.75,16.22,-112.39,-10.3,0.18,7.8,-0.28,-0.16,0.95,1000
16:50:38.910,-7.89,16.21,-112.28,-7.5,0.06,11.89,-0.3,-0.18,0.92,1000
16:50:38.918,-8.05,16.29,-112.13,-3.84,0.24,15.55,-0.32,-0.18,0.92,1000
16:50:38.930,-8.15,16.4,-111.95,0.91,2.07,16.77,-0.29,-0.16,0.93,1000
16:50:38.941,-8.16,16.49,-111.77,5.98,4.02,15.12,-0.28,-0.13,0.92,1000
16:50:38.951,-8.05,16.6,-111.61,10.79,4.82,10.98,-0.27,-0.11,0.91,1000
16:50:38.962,-7.84,16.66,-111.52,13.96,4.39,5.73,-0.26,-0.09,0.9,1000
16:50:38.972,-7.56,16.68,-111.48,15.67,4.21,0.49,-0.27,-0.08,0.9,1000
16:50:38.988,-7.21,16.72,-111.5,15.55,4.57,-4.76,-0.29,-0.08,0.9,1000
16:50:38.997,-6.89,16.84,-111.57,12.8,5.43,-7.68,-0.31,-0.11,0.9,1000
16:50:39.006,-6.7,16.99,-111.66,9.21,7.44,-9.02,-0.29,-0.1,0.9,1000
16:50:39.018,-6.56,17.16,-111.77,4.51,9.21,-10.73,-0.29,-0.08,0.89,1000
16:50:39.035,-6.4,17.31,-111.9,0.0,8.84,-13.05,-0.27,-0.07,0.9,1000
16:50:39.040,-6.25,17.42,-112.07,-4.63,6.16,-15.67,-0.27,-0.06,0.91,1000
16:50:39.050,-6.1,17.45,-112.24,-8.17,2.99,-17.93,-0.26,-0.05,0.91,1000
16:50:39.060,-5.96,17.4,-112.44,-11.22,-0.49,-19.51,-0.26,-0.04,0.9,1000
16:50:39.072,-5.83,17.31,-112.68,-13.84,-3.6,-20.24,-0.27,-0.04,0.89,1000
16:50:39.083,-5.73,17.23,-112.88,-15.49,-5.79,-18.72,-0.29,-0.08,0.89,1000
16:50:39.093,-5.77,17.17,-113.07,-16.46,-7.07,-15.06,-0.27,-0.12,0.89,1000
16:50:39.110,-5.91,17.09,-113.21,-15.37,-8.29,-10.37,-0.25,-0.11,0.88,1000
16:50:39.116,-6.04,16.97,-113.31,-12.93,-9.39,-7.26,-0.25,-0.1,0.87,1000
16:50:39.135,-6.16,16.8,-113.39,-9.51,-11.77,-5.18,-0.24,-0.1,0.87,1000
16:50:39.138,-6.22,16.62,-113.44,-6.4,-14.33,-4.21,-0.24,-0.09,0.86,1000
16:50:39.149,-6.21,16.4,-113.48,-3.17,-16.28,-3.78,-0.23,-0.09,0.85,1000
16:50:39.159,-6.16,16.14,-113.51,0.18,-17.99,-3.17,-0.22,-0.09,0.84,1000
16:50:39.176,-6.08,15.85,-113.54,3.29,-18.78,-2.13,-0.22,-0.1,0.83,1000
16:50:39.181,-6.0,15.6,-113.56,5.49,-18.66,-0.3,-0.24,-0.11,0.82,1000
16:50:39.194,-5.94,15.4,-113.55,6.65,-17.56,1.71,-0.24,-0.11,0.82,1000
16:50:39.204,-5.89,15.26,-113.52,7.44,-15.91,3.41,-0.24,-0.1,0.82,1000
16:50:39.215,-5.82,15.14,-113.48,7.62,-14.63,4.15,-0.24,-0.09,0.83,1000
16:50:39.238,-5.72,15.04,-113.44,7.62,-13.9,3.84,-0.24,-0.08,0.83,1000
16:50:39.238,-5.6,14.97,-113.4,6.46,-13.72,2.56,-0.24,-0.07,0.83,1000
16:50:39.252,-5.46,14.87,-113.37,6.28,-13.17,1.04,-0.23,-0.07,0.85,1000
16:50:39.260,-5.32,14.81,-113.37,6.16,-11.95,0.43,-0.25,-0.07,0.85,1000
16:50:39.270,-5.13,14.79,-113.36,6.83,-9.45,0.49,-0.26,-0.07,0.86,1000
16:50:39.281,-4.95,14.85,-113.36,7.62,-6.89,-0.12,-0.26,-0.07,0.85,1000
16:50:39.291,-4.8,14.94,-113.37,7.87,-6.28,-0.79,-0.27,-0.09,0.84,1000
16:50:39.303,-4.7,15.03,-113.37,4.57,-8.78,-0.91,-0.28,-0.1,0.88,1000
16:50:39.313,-4.67,15.05,-113.39,0.12,-14.39,-3.23,-0.26,-0.1,0.94,1000
16:50:39.337,-4.69,14.92,-113.44,-4.51,-24.21,-6.46,-0.25,-0.07,0.97,1000
16:50:39.339,-4.78,14.61,-113.53,-11.4,-37.62,-9.27,-0.24,-0.07,0.97,1000
16:50:39.347,-4.93,14.14,-113.64,-17.8,-48.54,-11.1,-0.23,-0.08,0.99,1000
16:50:39.359,-5.1,13.56,-113.77,-23.05,-56.04,-11.77,-0.22,-0.08,0.98,1000
16:50:39.368,-5.32,12.94,-113.9,-26.52,-60.73,-11.77,-0.23,-0.1,0.97,1000
16:50:39.379,-5.59,12.3,-114.02,-28.17,-61.83,-10.91,-0.2,-0.11,0.94,1000
16:50:39.391,-5.91,11.6,-114.15,-28.29,-59.27,-9.88,-0.18,-0.11,0.92,1000
16:50:39.407,-6.19,11.03,-114.24,-27.26,-54.57,-8.23,-0.15,-0.12,0.88,1000
16:50:39.414,-6.48,10.46,-114.31,-24.33,-46.46,-5.3,-0.14,-0.12,0.87,1000
16:50:39.424,-6.78,9.92,-114.36,-19.94,-35.0,-1.28,-0.12,-0.13,0.87,1000
16:50:39.443,-7.02,9.52,-114.35,-16.59,-24.63,2.2,-0.1,-0.14,0.89,1000
16:50:39.446,-7.22,9.18,-114.31,-13.29,-14.45,5.43,-0.1,-0.14,0.9,1000
16:50:39.456,-7.42,8.86,-114.24,-11.65,-7.44,8.05,-0.1,-0.15,0.93,1000
16:50:39.467,-7.61,8.6,-114.14,-10.73,-3.6,10.37,-0.1,-0.15,0.94,1000
16:50:39.478,-7.78,8.42,-114.01,-11.34,-2.13,12.32,-0.1,-0.15,0.97,1000
16:50:39.491,-7.97,8.19,-113.87,-12.44,-2.74,12.99,-0.11,-0.15,0.98,1000
16:50:39.501,-8.16,8.0,-113.72,-15.37,-5.0,12.8,-0.12,-0.16,1.0,1000
16:50:39.512,-8.36,7.85,-113.59,-18.05,-6.89,12.5,-0.11,-0.17,1.02,1000
16:50:39.523,-8.61,7.65,-113.45,-20.98,-9.02,11.59,-0.11,-0.17,1.03,1000
16:50:39.538,-8.87,7.45,-113.34,-23.96,-11.89,9.57,-0.14,-0.18,1.04,1000
16:50:39.548,-9.14,7.27,-113.24,-25.67,-14.27,7.68,-0.13,-0.19,1.07,1000
16:50:39.555,-9.43,7.07,-113.17,-26.77,-16.34,5.24,-0.12,-0.19,1.08,1000
16:50:39.566,-9.71,6.85,-113.12,-27.2,-18.35,3.05,-0.13,-0.19,1.07,1000
16:50:39.577,-9.99,6.64,-113.09,-26.95,-21.52,1.34,-0.14,-0.2,1.05,1000
16:50:39.589,-10.29,6.41,-113.08,-25.85,-24.88,0.91,-0.12,-0.22,1.04,1000
16:50:39.609,-10.59,6.15,-113.07,-23.72,-28.17,0.85,-0.12,-0.23,1.03,1000
16:50:39.611,-10.89,5.86,-113.06,-21.1,-30.3,1.4,-0.12,-0.24,1.02,1000
16:50:39.622,-11.21,5.54,-113.04,-18.17,-32.62,2.2,-0.11,-0.24,1.02,1000
16:50:39.645,-11.49,5.26,-113.01,-16.46,-34.45,2.99,-0.11,-0.25,1.01,1000
16:50:39.645,-11.77,4.93,-112.97,-15.49,-36.04,4.33,-0.1,-0.25,1.01,1000
16:50:39.656,-12.04,4.57,-112.92,-15.85,-37.62,5.49,-0.09,-0.26,1.0,1000
16:50:39.666,-12.32,4.21,-112.86,-17.32,-38.9,6.22,-0.08,-0.25,0.98,1000
16:50:39.676,-12.62,3.85,-112.79,-19.33,-40.3,6.83,-0.08,-0.25,0.97,1000
16:50:39.687,-12.95,3.49,-112.71,-21.59,-41.1,7.44,-0.07,-0.26,0.96,1000
16:50:39.699,-13.31,3.13,-112.62,-23.9,-40.85,8.35,-0.08,-0.27,0.96,1000
16:50:39.709,-13.68,2.81,-112.53,-26.22,-38.66,9.09,-0.08,-0.26,0.98,1000
16:50:39.722,-14.06,2.5,-112.43,-28.11,-34.94,9.09,-0.05,-0.25,0.96,1000
16:50:39.734,-14.41,2.21,-112.33,-30.49,-30.67,8.17,-0.06,-0.24,0.97,1000
16:50:39.743,-14.74,1.99,-112.25,-32.99,-25.0,7.07,-0.05,-0.25,0.97,1000
16:50:39.755,-15.08,1.83,-112.18,-36.04,-19.63,5.85,-0.03,-0.25,0.97,1000
16:50:39.764,-15.42,1.69,-112.12,-40.12,-14.39,3.78,-0.04,-0.25,0.94,1000
16:50:39.776,-15.86,1.61,-112.09,-45.3,-10.43,1.52,-0.04,-0.26,0.94,1000
16:50:39.786,-16.26,1.58,-112.08,-49.63,-6.65,-0.37,-0.03,-0.27,0.95,1000
16:50:39.798,-16.79,1.56,-112.1,-54.57,-2.44,-3.05,-0.03,-0.27,0.95,1000
16:50:39.808,-17.27,1.57,-112.14,-58.54,0.85,-5.18,-0.04,-0.28,0.95,1000
16:50:39.827,-17.84,1.64,-112.21,-61.52,5.0,-6.95,-0.02,-0.32,0.95,1000
16:50:39.831,-18.55,1.74,-112.3,-63.78,8.9,-8.48,-0.04,-0.34,0.94,1000
16:50:39.842,-19.18,1.85,-112.39,-64.45,10.79,-9.21,-0.03,-0.35,0.93,1000
16:50:39.853,-19.88,1.96,-112.49,-64.15,11.71,-9.82,-0.03,-0.36,0.93,1000
16:50:39.864,-20.58,2.07,-112.6,-62.38,11.52,-10.18,-0.03,-0.38,0.93,1000
16:50:39.876,-21.29,2.15,-112.72,-59.27,11.22,-10.0,-0.02,-0.4,0.93,1000
16:50:39.891,-22.03,2.23,-112.84,-53.78,10.73,-10.12,-0.02,-0.41,0.93,1000
16:50:39.896,-22.59,2.28,-112.94,-48.41,9.94,-10.06,-0.02,-0.42,0.93,1000
16:50:39.908,-23.19,2.35,-113.06,-41.52,8.84,-9.51,-0.02,-0.43,0.92,1000
16:50:39.930,-23.69,2.37,-113.16,-35.12,7.8,-8.84,-0.03,-0.44,0.93,1000
16:50:39.931,-24.08,2.38,-113.24,-30.0,6.89,-7.56,-0.03,-0.45,0.93,1000
16:50:39.957,-24.46,2.38,-113.32,-25.3,5.85,-5.91,-0.02,-0.45,0.93,1000
16:50:39.957,-24.79,2.37,-113.37,-22.38,4.27,-4.02,-0.03,-0.46,0.93,1000
16:50:39.967,-25.09,2.36,-113.41,-20.67,2.68,-1.95,-0.03,-0.46,0.93,1000
16:50:39.976,-25.39,2.33,-113.42,-20.0,1.04,0.06,-0.02,-0.46,0.93,1000
16:50:39.994,-25.64,2.25,-113.42,-18.84,-0.61,1.34,-0.02,-0.46,0.92,1000
16:50:40.001,-25.91,2.16,-113.39,-17.56,-3.05,2.44,-0.01,-0.46,0.91,1000
16:50:40.008,-26.13,2.05,-113.37,-16.83,-4.94,2.93,-0.02,-0.46,0.91,1000
16:50:40.029,-26.35,1.93,-113.33,-16.22,-6.28,3.35,-0.01,-0.47,0.9,1000
16:50:40.029,-26.61,1.78,-113.29,-17.07,-7.38,3.84,-0.02,-0.47,0.89,1000
16:50:40.063,-26.87,1.65,-113.24,-18.29,-8.05,4.82,-0.02,-0.49,0.88,1000
16:50:40.063,-27.14,1.53,-113.19,-19.88,-7.87,5.67,-0.01,-0.49,0.88,1000
16:50:40.073,-27.48,1.39,-113.13,-21.77,-8.11,6.22,-0.01,-0.49,0.88,1000
16:50:40.073,-27.82,1.27,-113.06,-22.74,-8.17,6.04,-0.01,-0.49,0.87,1000
16:50:40.083,-28.19,1.14,-112.99,-22.93,-8.78,5.55,-0.01,-0.5,0.88,1000
16:50:40.094,-28.54,1.02,-112.93,-21.83,-9.15,4.82,-0.01,-0.5,0.87,1000
16:50:40.107,-28.89,0.88,-112.88,-19.94,-9.88,3.54,-0.01,-0.5,0.87,1000
16:50:40.119,-29.17,0.77,-112.85,-17.38,-10.06,2.5,-0.01,-0.51,0.86,1000
16:50:40.131,-29.42,0.66,-112.83,-14.02,-10.06,1.52,-0.01,-0.51,0.86,1000
16:50:40.142,-29.63,0.55,-112.82,-9.63,-9.63,0.79,-0.02,-0.52,0.86,1000
16:50:40.156,-29.79,0.47,-112.81,-4.88,-8.48,0.3,-0.03,-0.52,0.87,1000
16:50:40.161,-29.9,0.42,-112.81,-0.61,-6.71,0.18,-0.02,-0.52,0.87,1000
16:50:40.173,-29.96,0.4,-112.81,2.01,-4.39,-0.3,-0.02,-0.51,0.87,1000
16:50:40.184,-29.99,0.41,-112.82,3.05,-1.95,-0.98,-0.02,-0.5,0.87,1000
16:50:40.193,-29.99,0.45,-112.83,1.95,0.85,-1.59,-0.03,-0.5,0.88,1000
16:50:40.206,-29.99,0.53,-112.85,-0.67,3.29,-2.2,-0.03,-0.5,0.88,1000
16:50:40.218,-30.0,0.63,-112.87,-2.68,4.39,-2.2,-0.03,-0.5,0.88,1000
16:50:40.232,-30.02,0.74,-112.9,-4.82,5.3,-2.2,-0.03,-0.5,0.89,1000
16:50:40.239,-30.03,0.88,-112.92,-6.22,5.24,-2.01,-0.03,-0.5,0.9,1000
16:50:40.263,-30.05,1.0,-112.95,-7.74,4.57,-2.13,-0.04,-0.5,0.9,1000
16:50:40.263,-30.09,1.11,-112.97,-8.35,3.84,-1.89,-0.03,-0.5,0.89,1000
16:50:40.277,-30.14,1.22,-112.99,-7.56,4.45,-1.59,-0.03,-0.5,0.87,1000
16:50:40.283,-30.19,1.32,-113.0,-6.16,6.34,-1.16,-0.03,-0.5,0.86,1000
16:50:40.292,-30.25,1.44,-113.02,-4.09,8.17,-1.1,-0.04,-0.5,0.85,1000
16:50:40.305,-30.3,1.59,-113.03,-2.07,9.15,-1.04,-0.04,-0.51,0.87,1000
16:50:40.315,-30.34,1.74,-113.04,-1.1,8.11,-1.22,-0.04,-0.51,0.88,1000
16:50:40.331,-30.35,1.85,-113.05,-0.18,6.22,-1.52,-0.04,-0.51,0.89,1000
16:50:40.337,-30.33,1.95,-113.07,1.34,3.84,-2.13,-0.05,-0.52,0.89,1000
16:50:40.357,-30.33,2.04,-113.1,3.41,2.26,-2.68,-0.05,-0.53,0.88,1000
16:50:40.360,-30.32,2.11,-113.14,6.71,1.95,-3.48,-0.04,-0.52,0.87,1000
16:50:40.369,-30.3,2.17,-113.18,10.37,2.62,-4.88,-0.05,-0.52,0.85,1000
16:50:40.380,-30.25,2.25,-113.24,14.76,4.09,-6.46,-0.05,-0.52,0.85,1000
16:50:40.392,-30.18,2.33,-113.32,19.02,6.28,-8.17,-0.04,-0.52,0.84,1000
16:50:40.404,-30.05,2.43,-113.43,22.26,8.05,-10.24,-0.04,-0.5,0.84,1000
16:50:40.413,-29.91,2.52,-113.54,24.21,8.84,-11.52,-0.05,-0.5,0.85,1000
16:50:40.424,-29.71,2.64,-113.67,25.24,8.78,-12.44,-0.06,-0.5,0.85,1000
16:50:40.440,-29.5,2.76,-113.81,26.04,9.15,-12.62,-0.05,-0.5,0.86,1000
16:50:40.446,-29.29,2.89,-113.94,26.59,9.63,-12.87,-0.06,-0.5,0.86,1000
16:50:40.466,-29.07,3.04,-114.1,26.46,10.55,-13.48,-0.06,-0.49,0.85,1000
16:50:40.468,-28.9,3.17,-114.24,24.94,11.16,-14.7,-0.05,-0.48,0.86,1000
16:50:40.480,-28.68,3.31,-114.43,22.74,12.32,-16.4,-0.05,-0.47,0.86,1000
16:50:40.490,-28.49,3.42,-114.6,21.04,12.68,-17.62,-0.05,-0.47,0.87,1000
16:50:40.501,-28.3,3.55,-114.8,20.06,13.05,-18.84,-0.06,-0.48,0.88,1000
16:50:40.512,-28.12,3.67,-115.01,20.06,12.38,-19.45,-0.06,-0.46,0.88,1000
16:50:40.523,-27.91,3.79,-115.22,21.4,11.16,-19.63,-0.06,-0.46,0.88,1000
16:50:40.535,-27.66,3.88,-115.46,24.57,9.51,-19.94,-0.06,-0.46,0.89,1000
16:50:40.546,-27.4,3.94,-115.68,27.68,7.8,-19.21,-0.06,-0.46,0.89,1000
16:50:40.557,-27.1,3.97,-115.89,31.89,5.98,-18.6,-0.06,-0.45,0.9,1000
16:50:40.567,-26.77,3.98,-116.07,35.06,4.63,-17.87,-0.07,-0.45,0.9,1000
16:50:40.578,-26.39,4.0,-116.26,38.23,2.93,-16.77,-0.06,-0.45,0.91,1000
16:50:40.590,-25.98,4.0,-116.44,40.79,1.28,-15.73,-0.05,-0.43,0.92,1000
16:50:40.601,-25.48,3.95,-116.63,41.52,-0.12,-15.49,-0.05,-0.41,0.94,1000
16:50:40.611,-25.01,3.88,-116.79,40.55,-0.55,-16.22,-0.04,-0.39,0.93,1000
16:50:40.625,-24.49,3.78,-116.97,37.5,-0.73,-17.5,-0.04,-0.37,0.94,1000
16:50:40.633,-23.98,3.68,-117.17,32.93,0.06,-18.96,-0.04,-0.37,0.95,1000
16:50:40.645,-23.49,3.6,-117.38,27.99,1.83,-20.12,-0.04,-0.35,0.96,1000
16:50:40.664,-23.06,3.55,-117.61,22.32,3.84,-20.43,-0.04,-0.35,0.97,1000
16:50:40.670,-22.63,3.5,-117.83,16.52,5.67,-20.12,-0.05,-0.35,0.98,1000
16:50:40.680,-22.35,3.51,-118.05,10.85,7.26,-19.27,-0.05,-0.35,0.99,1000
16:50:40.689,-22.08,3.5,-118.25,6.04,8.41,-18.29,-0.03,-0.35,1.0,1000
16:50:40.700,-21.86,3.5,-118.45,1.95,8.29,-17.07,-0.06,-0.35,1.01,1000
16:50:40.711,-21.65,3.52,-118.65,-0.55,7.56,-15.91,-0.07,-0.35,1.02,1000
16:50:40.721,-21.49,3.55,-118.8,-1.28,6.46,-14.94,-0.06,-0.36,1.03,1000
16:50:40.732,-21.33,3.58,-118.96,-0.85,5.37,-13.72,-0.06,-0.36,1.03,1000
16:50:40.745,-21.2,3.61,-119.1,1.22,4.63,-12.74,-0.06,-0.36,1.03,1000
16:50:40.755,-21.05,3.63,-119.24,4.94,4.21,-11.52,-0.06,-0.37,1.02,1000
16:50:40.766,-20.87,3.64,-119.36,9.63,3.9,-10.24,-0.06,-0.36,1.01,1000
16:50:40.776,-20.65,3.65,-119.47,14.15,3.84,-8.9,-0.06,-0.35,1.02,1000
16:50:40.787,-20.35,3.65,-119.56,17.93,3.41,-8.23,-0.07,-0.35,1.02,1000
16:50:40.800,-20.03,3.66,-119.65,19.94,2.01,-7.62,-0.07,-0.36,1.03,1000
16:50:40.809,-19.73,3.65,-119.73,20.3,-0.67,-7.13,-0.06,-0.35,1.03,1000
16:50:40.821,-19.42,3.59,-119.81,19.33,-4.21,-7.74,-0.06,-0.34,1.03,1000
16:50:40.833,-19.14,3.5,-119.9,17.5,-7.68,-8.35,-0.06,-0.33,1.02,1000
16:50:40.843,-18.85,3.35,-120.0,15.24,-10.24,-9.15,-0.05,-0.33,1.01,1000
16:50:40.853,-18.63,3.22,-120.09,13.54,-10.85,-9.39,-0.05,-0.33,0.99,1000
16:50:40.869,-18.45,3.06,-120.2,11.65,-10.24,-9.76,-0.04,-0.32,0.98,1000
16:50:40.879,-18.3,2.92,-120.31,9.76,-9.7,-9.88,-0.04,-0.32,0.97,1000
16:50:40.887,-18.19,2.75,-120.43,6.83,-8.96,-10.12,-0.04,-0.32,0.96,1000
16:50:40.897,-18.12,2.62,-120.53,4.45,-8.05,-10.43,-0.03,-0.31,0.96,1000
16:50:40.909,-18.06,2.48,-120.65,2.5,-6.46,-10.61,-0.03,-0.3,0.95,1000
16:50:40.920,-18.01,2.38,-120.78,1.59,-2.87,-11.1,-0.03,-0.3,0.93,1000
16:50:40.932,-17.96,2.32,-120.89,2.44,1.46,-11.16,-0.03,-0.29,0.91,1000
16:50:40.943,-17.89,2.31,-121.01,3.9,6.04,-10.67,-0.03,-0.29,0.93,1000
16:50:40.953,-17.81,2.33,-121.12,4.33,8.41,-9.94,-0.03,-0.3,0.95,1000
16:50:40.974,-17.73,2.38,-121.23,3.9,8.78,-8.96,-0.04,-0.3,0.97,1000
16:50:40.977,-17.64,2.44,-121.32,2.62,8.05,-8.05,-0.04,-0.3,0.98,1000
16:50:40.985,-17.57,2.49,-121.41,1.16,7.13,-7.07,-0.04,-0.31,0.98,1000
16:50:40.996,-17.55,2.54,-121.48,-0.91,6.89,-5.79,-0.03,-0.32,0.96,1000
16:50:41.007,-17.59,2.57,-121.54,-3.54,6.95,-5.24,-0.04,-0.32,0.95,1000
16:50:41.018,-17.67,2.6,-121.59,-5.85,6.52,-4.7,-0.03,-0.32,0.96,1000
16:50:41.030,-17.76,2.6,-121.64,-7.99,5.18,-4.15,-0.04,-0.32,0.97,1000
16:50:41.043,-17.86,2.59,-121.68,-8.96,3.48,-3.23,-0.04,-0.33,0.97,1000
16:50:41.056,-17.99,2.56,-121.72,-8.96,0.98,-2.56,-0.03,-0.34,0.97,1000
16:50:41.062,-18.11,2.51,-121.74,-8.35,-0.73,-1.77,-0.03,-0.35,0.97,1000
16:50:41.074,-18.27,2.44,-121.76,-7.2,-2.07,-1.52,-0.03,-0.35,0.97,1000
16:50:41.085,-18.44,2.32,-121.77,-6.16,-3.66,-1.28,-0.02,-0.35,0.96,1000
16:50:41.097,-18.61,2.19,-121.78,-5.12,-4.39,-1.28,-0.02,-0.35,0.96,1000
16:50:41.106,-18.73,2.05,-121.8,-3.72,-4.63,-1.89,-0.01,-0.35,0.94,1000
16:50:41.118,-18.85,1.9,-121.83,-2.07,-4.21,-2.5,-0.01,-0.35,0.94,1000
16:50:41.129,-18.96,1.76,-121.86,-0.73,-3.66,-2.93,-0.01,-0.35,0.94,1000
16:50:41.140,-19.06,1.64,-121.89,-0.06,-2.56,-3.35,-0.01,-0.36,0.94,1000
16:50:41.159,-19.14,1.53,-121.93,0.67,-1.16,-3.54,-0.01,-0.35,0.94,1000
16:50:41.162,-19.21,1.47,-121.97,1.4,0.91,-3.96,-0.02,-0.35,0.95,1000
16:50:41.176,-19.25,1.43,-122.02,1.89,3.48,-4.02,-0.02,-0.35,0.95,1000
16:50:41.184,-19.29,1.43,-122.06,2.2,6.16,-3.6,-0.02,-0.35,0.94,1000
16:50:41.194,-19.33,1.45,-122.1,2.32,8.41,-3.17,-0.02,-0.35,0.96,1000
16:50:41.207,-19.36,1.51,-122.13,2.32,9.88,-2.68,-0.02,-0.34,0.96,1000
16:50:41.216,-19.36,1.57,-122.16,2.44,10.49,-2.13,-0.03,-0.34,0.96,1000
16:50:41.229,-19.35,1.65,-122.18,2.38,10.67,-1.77,-0.03,-0.34,0.97,1000
16:50:41.242,-19.34,1.73,-122.2,2.44,11.16,-1.77,-0.04,-0.34,0.96,1000
16:50:41.251,-19.32,1.84,-122.21,2.26,12.01,-1.28,-0.04,-0.34,0.97,1000
16:50:41.260,-19.3,1.95,-122.23,1.83,13.11,-0.98,-0.04,-0.34,0.96,1000
16:50:41.273,-19.29,2.09,-122.23,1.4,14.21,-0.43,-0.04,-0.34,0.97,1000
16:50:41.287,-19.27,2.22,-122.24,0.79,13.96,-0.24,-0.04,-0.33,0.98,1000
16:50:41.293,-19.23,2.33,-122.24,0.0,13.17,0.12,-0.04,-0.32,1.0,1000
16:50:41.305,-19.17,2.44,-122.24,-0.73,11.65,0.12,-0.04,-0.33,1.0,1000
16:50:41.315,-19.12,2.51,-122.23,-1.28,9.63,0.55,-0.05,-0.33,1.01,1000
16:50:41.326,-19.07,2.58,-122.22,-1.52,7.2,1.22,-0.05,-0.34,1.01,1000
16:50:41.337,-19.03,2.63,-122.21,-1.52,5.0,2.01,-0.06,-0.33,1.02,1000
16:50:41.353,-18.98,2.67,-122.18,-1.59,2.68,2.74,-0.06,-0.33,1.02,1000
16:50:41.362,-18.91,2.69,-122.14,-1.22,0.0,3.54,-0.06,-0.33,1.03,1000
16:50:41.381,-18.85,2.69,-122.1,-1.34,-1.77,3.78,-0.07,-0.32,1.03,1000
16:50:41.384,-18.73,2.69,-122.06,-1.52,-3.66,4.27,-0.07,-0.31,1.04,1000
16:50:41.394,-18.63,2.68,-122.01,-3.11,-5.43,3.72,-0.08,-0.32,1.05,1000
16:50:41.404,-18.57,2.66,-121.97,-5.24,-7.07,3.05,-0.08,-0.33,1.07,1000
16:50:41.414,-18.55,2.63,-121.95,-7.38,-8.6,2.01,-0.07,-0.33,1.07,1000
16:50:41.425,-18.52,2.58,-121.94,-9.27,-10.49,-0.55,-0.07,-0.31,1.08,1000
16:50:41.436,-18.5,2.49,-121.96,-10.55,-13.05,-3.35,-0.07,-0.32,1.07,1000
16:50:41.448,-18.48,2.38,-122.0,-10.55,-15.85,-5.18,-0.06,-0.33,1.08,1000
16:50:41.463,-18.48,2.24,-122.07,-9.57,-18.23,-6.4,-0.07,-0.33,1.07,1000
16:50:41.470,-18.47,2.07,-122.14,-7.99,-20.24,-6.46,-0.06,-0.33,1.05,1000
16:50:41.486,-18.44,1.94,-122.21,-6.46,-20.98,-5.98,-0.05,-0.34,1.02,1000
16:50:41.491,-18.45,1.75,-122.27,-4.33,-20.85,-4.76,-0.03,-0.34,0.99,1000
16:50:41.502,-18.47,1.55,-122.31,-1.83,-20.0,-3.6,-0.03,-0.34,0.98,1000
16:50:41.513,-18.48,1.34,-122.34,0.61,-19.7,-1.28,-0.02,-0.33,0.97,1000
16:50:41.524,-18.47,1.12,-122.34,2.44,-20.67,2.26,-0.01,-0.33,0.97,1000
16:50:41.536,-18.44,0.86,-122.29,4.63,-19.94,6.46,-0.01,-0.34,0.95,1000
16:50:41.549,-18.44,0.66,-122.21,4.51,-17.99,9.51,-0.01,-0.35,0.95,1000
16:50:41.558,-18.49,0.46,-122.08,2.8,-14.76,12.8,-0.01,-0.37,0.93,1000
16:50:41.569,-18.62,0.32,-121.95,0.49,-11.95,14.39,-0.01,-0.36,0.93,1000
16:50:41.589,-18.8,0.21,-121.78,-2.87,-9.02,15.37,-0.0,-0.36,0.93,1000
16:50:41.591,-19.02,0.13,-121.6,-6.28,-6.1,15.73,-0.0,-0.37,0.93,1000
16:50:41.602,-19.23,0.09,-121.44,-9.33,-2.8,15.73,-0.01,-0.37,0.93,1000
16:50:41.612,-19.51,0.07,-121.27,-12.32,-0.49,15.18,-0.0,-0.38,0.91,1000
16:50:41.624,-19.85,0.08,-121.1,-14.39,1.28,14.45,-0.01,-0.4,0.91,1000
16:50:41.635,-20.22,0.11,-120.93,-14.94,2.32,13.84,-0.02,-0.41,0.91,1000
16:50:41.645,-20.65,0.17,-120.8,-14.02,3.48,12.99,-0.02,-0.42,0.92,1000
16:50:41.661,-21.04,0.25,-120.66,-12.26,4.45,11.95,-0.02,-0.42,0.92,1000
16:50:41.668,-21.37,0.33,-120.54,-9.45,5.06,10.43,-0.02,-0.42,0.92,1000
16:50:41.689,-21.65,0.43,-120.44,-6.34,4.94,8.11,-0.02,-0.42,0.93,1000
16:50:41.694,-21.9,0.52,-120.36,-3.6,4.45,6.4,-0.02,-0.43,0.94,1000
16:50:41.701,-22.1,0.61,-120.3,-1.4,3.23,4.51,-0.03,-0.43,0.94,1000
16:50:41.713,-22.29,0.68,-120.25,-0.06,1.95,3.05,-0.04,-0.44,0.94,1000
16:50:41.723,-22.49,0.77,-120.22,0.61,1.1,2.07,-0.04,-0.45,0.94,1000
16:50:41.734,-22.64,0.83,-120.2,1.1,0.85,1.22,-0.04,-0.44,0.95,1000
16:50:41.744,-22.8,0.91,-120.2,1.46,0.61,0.12,-0.05,-0.45,0.95,1000
16:50:41.755,-22.99,1.01,-120.2,1.46,0.61,-0.73,-0.03,-0.44,0.95,1000
16:50:41.768,-23.14,1.08,-120.21,1.22,0.18,-2.56,-0.02,-0.43,0.95,1000
16:50:41.777,-23.23,1.1,-120.26,0.37,-0.49,-5.61,-0.02,-0.42,0.95,1000
16:50:41.795,-23.33,1.08,-120.34,-1.1,-1.04,-9.21,0.0,-0.41,0.95,1000
16:50:41.800,-23.4,1.02,-120.46,-2.62,-1.52,-12.87,-0.01,-0.41,0.95,1000
16:50:41.811,-23.47,0.94,-120.62,-3.66,-1.83,-15.91,0.01,-0.4,0.94,1000
16:50:41.821,-23.52,0.85,-120.79,-3.41,-1.52,-18.35,0.01,-0.4,0.94,1000
16:50:41.834,-23.55,0.75,-121.0,-2.01,-0.61,-20.73,0.02,-0.4,0.94,1000
16:50:41.843,-23.55,0.65,-121.24,0.12,0.67,-22.44,0.02,-0.39,0.94,1000
16:50:41.854,-23.51,0.56,-121.49,3.17,2.38,-23.9,0.02,-0.39,0.95,1000
16:50:41.865,-23.41,0.45,-121.76,6.34,3.84,-24.51,0.02,-0.38,0.94,1000
16:50:41.876,-23.28,0.37,-122.03,9.39,5.24,-24.39,0.01,-0.39,0.95,1000
16:50:41.898,-23.12,0.33,-122.29,12.07,5.61,-23.48,0.01,-0.39,0.95,1000
16:50:41.902,-22.93,0.3,-122.56,13.9,5.18,-21.65,0.01,-0.39,0.96,1000
16:50:41.910,-22.77,0.29,-122.77,14.76,4.57,-20.18,0.01,-0.38,0.96,1000
16:50:41.920,-22.57,0.28,-122.99,14.7,3.84,-18.72,0.0,-0.38,0.97,1000
16:50:41.931,-22.37,0.26,-123.19,14.27,2.99,-17.74,0.01,-0.36,0.96,1000
16:50:41.942,-22.17,0.24,-123.38,13.35,2.56,-17.38,0.01,-0.36,0.96,1000
16:50:41.953,-21.95,0.21,-123.57,12.38,2.44,-17.38,0.01,-0.35,0.95,1000
16:50:41.965,-21.72,0.18,-123.76,11.1,2.87,-17.62,0.01,-0.34,0.96,1000
16:50:41.977,-21.51,0.15,-123.96,9.39,3.78,-18.23,0.01,-0.32,0.97,1000
16:50:41.995,-21.24,0.13,-124.17,7.01,5.0,-19.33,0.0,-0.31,0.97,1000
16:50:42.003,-20.99,0.14,-124.4,4.63,5.49,-20.12,-0.0,-0.32,0.97,1000
16:50:42.011,-20.8,0.17,-124.61,2.8,5.61,-20.24,-0.01,-0.32,0.96,1000
16:50:42.019,-20.62,0.21,-124.83,1.46,5.91,-20.24,-0.0,-0.32,0.97,1000
16:50:42.032,-20.45,0.25,-125.05,0.98,6.34,-20.06,-0.01,-0.32,0.96,1000
16:50:42.043,-20.3,0.31,-125.27,1.46,7.07,-19.94,-0.01,-0.31,0.97,1000
16:50:42.052,-20.17,0.37,-125.49,2.56,7.38,-19.76,-0.01,-0.32,0.97,1000
16:50:42.064,-20.0,0.44,-125.71,4.15,7.44,-19.33,-0.01,-0.31,0.97,1000
16:50:42.075,-19.79,0.5,-125.94,6.71,7.13,-18.78,-0.01,-0.31,0.97,1000
16:50:42.086,-19.59,0.56,-126.12,9.51,7.07,-18.17,-0.01,-0.3,0.97,1000
16:50:42.103,-19.34,0.62,-126.32,12.38,6.59,-17.99,-0.01,-0.29,0.98,1000
16:50:42.107,-19.05,0.66,-126.52,15.06,6.46,-17.68,-0.01,-0.29,0.98,1000
16:50:42.119,-18.73,0.7,-126.71,17.13,6.1,-17.26,-0.01,-0.29,0.98,1000
16:50:42.129,-18.4,0.73,-126.9,19.09,5.43,-16.46,-0.01,-0.28,0.97,1000
16:50:42.141,-18.05,0.76,-127.07,20.12,4.63,-15.73,-0.01,-0.28,0.97,1000
16:50:42.157,-17.71,0.78,-127.24,20.43,3.72,-14.76,-0.01,-0.28,0.97,1000
16:50:42.179,-17.38,0.78,-127.4,19.63,3.05,-14.09,-0.0,-0.26,0.97,1000
16:50:42.179,-17.03,0.76,-127.57,17.74,2.38,-13.84,-0.0,-0.25,0.97,1000
16:50:42.185,-16.66,0.72,-127.72,15.3,2.38,-13.78,-0.0,-0.25,0.96,1000
16:50:42.203,-16.36,0.69,-127.86,12.8,2.56,-13.11,-0.0,-0.25,0.97,1000
16:50:42.207,-16.08,0.67,-128.01,9.63,3.29,-12.2,-0.01,-0.25,0.96,1000
16:50:42.217,-15.86,0.66,-128.13,7.2,3.66,-10.79,-0.0,-0.25,0.96,1000
16:50:42.229,-15.66,0.65,-128.24,4.63,4.02,-8.6,-0.01,-0.25,0.95,1000
16:50:42.239,-15.52,0.65,-128.32,2.8,4.7,-6.71,-0.01,-0.25,0.96,1000
16:50:42.251,-15.42,0.66,-128.39,0.98,5.55,-4.82,-0.01,-0.25,0.96,1000
16:50:42.264,-15.35,0.69,-128.43,-0.79,6.34,-2.93,-0.01,-0.26,0.96,1000
16:50:42.273,-15.3,0.72,-128.46,-2.38,6.83,-1.4,-0.01,-0.26,0.96,1000
16:50:42.284,-15.28,0.76,-128.47,-3.9,6.34,-0.61,-0.01,-0.26,0.97,1000
16:50:42.297,-15.28,0.79,-128.47,-4.88,5.3,-0.06,-0.02,-0.26,0.97,1000
16:50:42.306,-15.29,0.82,-128.47,-5.61,3.41,0.43,-0.02,-0.27,0.98,1000
16:50:42.320,-15.32,0.83,-128.47,-5.85,1.71,0.67,-0.02,-0.27,0.99,1000
16:50:42.327,-15.35,0.82,-128.46,-5.67,0.24,0.79,-0.01,-0.27,1.0,1000
16:50:42.339,-15.37,0.8,-128.45,-5.24,-1.04,1.4,-0.02,-0.28,1.0,1000
16:50:42.350,-15.41,0.76,-128.43,-4.76,-2.93,2.26,-0.02,-0.29,0.99,1000
16:50:42.360,-15.46,0.71,-128.4,-3.78,-4.33,3.48,-0.01,-0.29,0.99,1000
16:50:42.371,-15.54,0.64,-128.35,-2.62,-5.67,5.37,-0.01,-0.3,0.99,1000
16:50:42.384,-15.61,0.54,-128.28,-1.89,-6.95,6.77,-0.01,-0.3,0.99,1000
16:50:42.394,-15.67,0.43,-128.2,-2.01,-8.11,7.87,-0.01,-0.3,0.99,1000
16:50:42.411,-15.75,0.33,-128.12,-2.32,-9.09,8.48,0.0,-0.3,0.98,1000
16:50:42.415,-15.83,0.2,-128.02,-3.05,-9.39,9.02,0.0,-0.3,0.99,1000
16:50:42.426,-15.94,0.06,-127.92,-4.09,-9.27,9.15,0.01,-0.31,0.97,1000
16:50:42.439,-16.08,-0.09,-127.82,-4.94,-8.41,9.27,0.01,-0.31,0.97,1000
16:50:42.453,-16.22,-0.22,-127.71,-6.16,-7.07,9.51,0.02,-0.31,0.96,1000
16:50:42.467,-16.38,-0.36,-127.61,-7.01,-5.61,9.7,0.03,-0.31,0.95,1000
16:50:42.471,-16.57,-0.49,-127.51,-7.62,-3.84,9.02,0.03,-0.31,0.95,1000
16:50:42.481,-16.74,-0.62,-127.41,-7.93,-2.13,8.48,0.03,-0.32,0.94,1000
16:50:42.493,-16.96,-0.76,-127.31,-7.87,-1.22,7.56,0.03,-0.32,0.94,1000
16:50:42.511,-17.15,-0.86,-127.24,-7.2,-0.73,6.83,0.03,-0.33,0.94,1000
16:50:42.518,-17.33,-0.95,-127.17,-6.16,0.12,5.79,0.03,-0.32,0.94,1000
16:50:42.525,-17.46,-1.02,-127.11,-4.51,1.04,4.39,0.03,-0.31,0.95,1000
16:50:42.537,-17.57,-1.06,-127.07,-2.5,2.68,2.74,0.02,-0.32,0.95,1000
16:50:42.547,-17.67,-1.06,-127.05,-0.43,4.27,2.26,0.01,-0.33,0.95,1000
16:50:42.559,-17.77,-1.01,-127.02,1.28,5.67,1.89,0.0,-0.34,0.95,1000
16:50:42.572,-17.84,-0.93,-127.0,2.32,6.71,1.83,0.0,-0.34,0.95,1000
16:50:42.582,-17.92,-0.83,-126.98,2.38,7.26,1.52,-0.01,-0.33,0.97,1000
16:50:42.591,-17.98,-0.71,-126.97,1.59,7.2,1.22,-0.01,-0.33,0.97,1000
16:50:42.615,-18.05,-0.58,-126.95,0.55,6.65,0.85,-0.01,-0.34,0.98,1000
16:50:42.616,-18.11,-0.47,-126.95,-0.91,5.67,0.24,-0.01,-0.33,0.97,1000
16:50:42.627,-18.18,-0.36,-126.95,-2.38,5.06,-0.18,-0.01,-0.33,0.97,1000
16:50:42.635,-18.25,-0.28,-126.95,-3.29,4.27,-0.67,-0.01,-0.32,0.97,1000
16:50:42.649,-18.32,-0.18,-126.96,-4.02,3.9,-0.85,-0.01,-0.33,0.97,1000
16:50:42.659,-18.38,-0.11,-126.97,-4.63,3.11,-1.04,-0.02,-0.33,0.97,1000
16:50:42.668,-18.46,-0.03,-126.98,-5.18,2.5,-0.61,-0.02,-0.33,0.98,1000
16:50:42.681,-18.53,0.04,-126.99,-5.67,2.2,-0.37,-0.02,-0.33,0.98,1000
16:50:42.693,-18.6,0.1,-126.99,-6.1,2.01,-0.3,-0.02,-0.33,0.99,1000
16:50:42.701,-18.67,0.16,-126.99,-6.83,2.07,0.06,-0.02,-0.33,0.99,1000
16:50:42.715,-18.74,0.22,-126.99,-7.26,1.59,0.37,-0.02,-0.33,1.0,1000
16:50:42.723,-18.81,0.28,-126.99,-7.87,1.16,0.67,-0.03,-0.34,0.99,1000
16:50:42.736,-18.9,0.34,-126.98,-8.11,0.73,0.91,-0.03,-0.34,0.99,1000
16:50:42.745,-18.98,0.41,-126.96,-8.29,0.37,1.46,-0.03,-0.35,1.0,1000
16:50:42.756,-19.08,0.46,-126.94,-7.93,0.49,1.95,-0.03,-0.35,0.99,1000
16:50:42.767,-19.18,0.53,-126.92,-7.5,0.37,2.56,-0.03,-0.35,0.98,1000
16:50:42.779,-19.28,0.59,-126.89,-7.2,0.49,2.93,-0.02,-0.35,0.98,1000
16:50:42.791,-19.38,0.63,-126.86,-6.65,0.55,2.74,-0.02,-0.35,0.98,1000
16:50:42.800,-19.46,0.66,-126.83,-6.52,0.49,2.5,-0.02,-0.35,0.98,1000
16:50:42.819,-19.56,0.69,-126.8,-6.4,0.61,2.2,-0.02,-0.36,0.97,1000
16:50:42.822,-19.66,0.72,-126.78,-6.1,0.55,2.38,-0.02,-0.36,0.97,1000
16:50:42.833,-19.77,0.76,-126.75,-5.91,0.85,2.26,-0.02,-0.37,0.97,1000
16:50:42.844,-19.87,0.79,-126.73,-5.61,1.04,2.26,-0.02,-0.37,0.97,1000
16:50:42.855,-19.98,0.83,-126.7,-4.88,1.1,2.38,-0.03,-0.37,0.97,1000
16:50:42.866,-20.09,0.86,-126.68,-3.78,0.98,2.13,-0.02,-0.37,0.97,1000
16:50:42.877,-20.19,0.91,-126.66,-2.5,1.4,1.95,-0.03,-0.37,0.96,1000
16:50:42.889,-20.27,0.95,-126.64,-1.22,1.28,1.34,-0.02,-0.37,0.96,1000
16:50:42.899,-20.33,0.98,-126.63,-0.12,1.4,0.79,-0.03,-0.36,0.96,1000
16:50:42.922,-20.37,1.01,-126.62,0.79,1.83,-0.06,-0.02,-0.36,0.96,1000
16:50:42.922,-20.4,1.06,-126.62,1.52,1.95,-0.37,-0.03,-0.36,0.96,1000
16:50:42.933,-20.42,1.11,-126.63,2.01,2.2,-0.98,-0.03,-0.36,0.96,1000
16:50:42.943,-20.43,1.17,-126.64,2.44,2.62,-1.1,-0.03,-0.36,0.96,1000
16:50:42.955,-20.43,1.23,-126.65,2.13,2.99,-1.59,-0.03,-0.36,0.96,1000
16:50:42.965,-20.42,1.29,-126.67,1.65,3.23,-2.13,-0.03,-0.35,0.97,1000
16:50:42.976,-20.4,1.34,-126.7,0.91,3.23,-2.68,-0.03,-0.35,0.97,1000
16:50:42.993,-20.38,1.4,-126.74,-0.06,2.99,-3.66,-0.03,-0.35,0.97,1000
16:50:43.000,-20.37,1.45,-126.78,-0.49,2.8,-4.21,-0.03,-0.35,0.97,1000
16:50:43.032,-20.34,1.5,-126.82,-0.49,2.99,-4.51,-0.04,-0.35,0.97,1000
16:50:43.032,-20.3,1.56,-126.87,-0.37,3.17,-4.57,-0.03,-0.35,0.97,1000
16:50:43.032,-20.27,1.61,-126.92,0.12,3.23,-4.76,-0.03,-0.34,0.97,1000
16:50:43.042,-20.22,1.65,-126.98,0.37,3.17,-4.88,-0.03,-0.34,0.97,1000
16:50:43.055,-20.17,1.7,-127.03,-0.12,2.87,-4.88,-0.03,-0.34,0.96,1000
16:50:43.064,-20.14,1.74,-127.08,-0.98,2.5,-4.7,-0.03,-0.34,0.96,1000
16:50:43.075,-20.1,1.77,-127.13,-1.95,2.56,-4.33,-0.03,-0.34,0.97,1000
16:50:43.087,-20.08,1.8,-127.18,-3.17,2.5,-4.21,-0.04,-0.34,0.96,1000
16:50:43.100,-20.07,1.82,-127.23,-3.72,1.71,-3.96,-0.04,-0.34,0.97,1000
16:50:43.108,-20.07,1.85,-127.26,-3.84,1.16,-3.41,-0.03,-0.35,0.97,1000
16:50:43.127,-20.08,1.87,-127.3,-3.05,0.79,-2.74,-0.04,-0.35,0.98,1000
16:50:43.130,-20.07,1.88,-127.33,-1.59,0.43,-2.38,-0.04,-0.34,0.98,1000
16:50:43.141,-20.05,1.89,-127.35,0.06,-0.06,-2.2,-0.04,-0.34,0.98,1000
16:50:43.152,-20.0,1.89,-127.38,1.59,-0.24,-2.32,-0.04,-0.34,0.98,1000
16:50:43.165,-19.92,1.91,-127.41,2.8,-0.49,-2.38,-0.04,-0.34,0.99,1000
16:50:43.174,-19.85,1.92,-127.43,3.72,-0.37,-1.89,-0.04,-0.35,0.98,1000
16:50:43.187,-19.77,1.94,-127.45,4.15,-0.37,-1.4,-0.04,-0.34,0.98,1000
16:50:43.197,-19.69,1.95,-127.46,3.96,-0.18,-0.98,-0.04,-0.34,0.97,1000
16:50:43.207,-19.61,1.97,-127.47,2.93,0.0,-0.61,-0.04,-0.34,0.97,1000
16:50:43.229,-19.55,1.99,-127.48,1.77,0.49,-0.06,-0.04,-0.33,0.97,1000
16:50:43.230,-19.5,2.01,-127.47,0.37,1.22,0.43,-0.04,-0.33,0.97,1000
16:50:43.241,-19.47,2.05,-127.46,-1.34,1.95,1.22,-0.04,-0.33,0.96,1000
16:50:43.251,-19.46,2.08,-127.45,-2.62,2.5,1.28,-0.04,-0.33,0.97,1000
16:50:43.262,-19.46,2.12,-127.44,-3.6,2.74,1.71,-0.04,-0.34,0.96,1000
16:50:43.275,-19.48,2.15,-127.41,-4.02,2.8,2.07,-0.04,-0.34,0.97,1000
16:50:43.284,-19.5,2.19,-127.39,-3.78,2.68,2.44,-0.04,-0.34,0.97,1000
16:50:43.296,-19.52,2.22,-127.36,-3.11,2.8,2.87,-0.04,-0.34,0.98,1000
16:50:43.308,-19.53,2.25,-127.33,-2.26,2.38,2.74,-0.04,-0.34,0.97,1000
16:50:43.322,-19.54,2.27,-127.3,-1.52,1.77,2.74,-0.04,-0.34,0.97,1000
16:50:43.332,-19.54,2.28,-127.27,-0.98,0.61,2.62,-0.04,-0.34,0.97,1000
16:50:43.344,-19.55,2.29,-127.24,-0.24,-0.12,2.87,-0.04,-0.35,0.96,1000
16:50:43.351,-19.55,2.28,-127.21,0.61,-1.34,2.8,-0.04,-0.35,0.96,1000
16:50:43.362,-19.56,2.26,-127.18,0.85,-1.52,2.8,-0.04,-0.35,0.96,1000
16:50:43.379,-19.57,2.24,-127.15,1.22,-1.04,2.8,-0.03,-0.35,0.96,1000
16:50:43.384,-19.59,2.21,-127.12,1.59,-0.49,2.62,-0.03,-0.35,0.95,1000
16:50:43.399,-19.61,2.17,-127.09,1.59,-0.12,2.68,-0.03,-0.35,0.95,1000
16:50:43.406,-19.62,2.13,-127.06,1.77,0.3,2.62,-0.03,-0.35,0.95,1000
16:50:43.416,-19.63,2.11,-127.04,1.34,0.37,2.5,-0.03,-0.35,0.96,1000
16:50:43.429,-19.66,2.09,-127.01,1.1,0.49,2.32,-0.04,-0.36,0.97,1000
16:50:43.439,-19.68,2.09,-126.98,0.98,0.61,2.07,-0.04,-0.36,0.97,1000
16:50:43.450,-19.69,2.1,-126.96,1.16,0.85,1.71,-0.04,-0.35,0.97,1000
16:50:43.460,-19.69,2.11,-126.95,1.52,1.4,1.16,-0.04,-0.35,0.97,1000
16:50:43.473,-19.67,2.14,-126.94,1.77,1.65,0.61,-0.04,-0.35,0.97,1000
16:50:43.484,-19.65,2.18,-126.93,2.01,1.89,0.12,-0.05,-0.34,0.98,1000
16:50:43.495,-19.62,2.22,-126.93,2.26,2.62,-0.61,-0.05,-0.34,0.98,1000
16:50:43.508,-19.57,2.27,-126.94,2.62,3.17,-1.28,-0.05,-0.34,0.98,1000
16:50:43.516,-19.52,2.33,-126.96,2.62,3.35,-1.71,-0.05,-0.34,0.98,1000
16:50:43.531,-19.47,2.38,-126.98,2.62,2.93,-2.2,-0.04,-0.35,0.98,1000
16:50:43.537,-19.43,2.43,-127.0,2.8,2.44,-2.2,-0.05,-0.35,0.97,1000
16:50:43.548,-19.41,2.48,-127.03,2.8,1.34,-2.32,-0.06,-0.35,0.98,1000
16:50:43.559,-19.39,2.52,-127.05,3.05,0.55,-2.13,-0.05,-0.35,0.98,1000
16:50:43.570,-19.37,2.55,-127.08,3.6,-0.06,-2.13,-0.05,-0.34,0.98,1000
16:50:43.581,-19.34,2.56,-127.1,3.72,-0.49,-2.5,-0.05,-0.34,0.97,1000
16:50:43.592,-19.3,2.57,-127.13,3.9,-0.18,-2.26,-0.05,-0.34,0.97,1000
16:50:43.603,-19.27,2.58,-127.15,3.54,0.12,-2.56,-0.05,-0.34,0.97,1000
16:50:43.615,-19.24,2.6,-127.18,3.41,0.98,-2.56,-0.05,-0.34,0.97,1000
16:50:43.649,-19.22,2.62,-127.21,2.93,1.59,-2.44,-0.05,-0.34,0.97,1000
