Timestamp,Roll,Pitch,Yaw,Gyro_X,Gyro_Y,Gyro_Z,Accel_X,Accel_Y,Accel_Z,Throttle
17:16:13.022,-7.83,-4.07,-103.12,2.38,-1.34,-6.95,0.09,-0.16,1.02,1000
17:16:13.032,-8.03,-4.21,-103.2,3.17,-1.22,-7.2,0.1,-0.16,1.02,1000
17:16:13.043,-8.2,-4.45,-103.28,3.72,-0.85,-6.46,0.1,-0.15,1.02,1000
17:16:13.056,-8.23,-4.67,-103.34,3.84,-0.3,-5.06,0.11,-0.15,1.02,1000
17:16:13.065,-8.19,-4.89,-103.39,3.84,0.3,-3.17,0.11,-0.14,1.02,1000
17:16:13.077,-8.09,-5.07,-103.41,3.96,0.43,-0.49,0.1,-0.13,1.01,1000
17:16:13.087,-7.93,-5.18,-103.4,3.6,0.49,2.26,0.09,-0.13,1.01,1000
17:16:13.098,-7.78,-5.17,-103.37,3.23,0.12,4.7,0.08,-0.13,1.01,1000
17:16:13.109,-7.61,-5.04,-103.3,2.74,-1.16,6.71,0.07,-0.12,1.01,1000
17:16:13.121,-7.43,-4.8,-103.22,2.07,-2.26,7.44,0.06,-0.12,1.02,1000
17:16:13.134,-7.31,-4.58,-103.15,1.4,-3.05,7.2,0.06,-0.13,1.03,1000
17:16:13.142,-7.23,-4.39,-103.07,0.24,-3.17,5.43,0.07,-0.13,1.04,1000
17:16:13.153,-7.22,-4.3,-103.03,-0.73,-2.38,3.05,0.08,-0.14,1.05,1000
17:16:13.164,-7.28,-4.28,-103.01,-1.65,-1.04,-0.12,0.09,-0.15,1.05,1000
17:16:13.178,-7.36,-4.34,-103.02,-1.46,0.12,-2.56,0.1,-0.15,1.05,1000
17:16:13.186,-7.44,-4.46,-103.06,-1.46,1.71,-4.45,0.1,-0.14,1.04,1000
17:16:13.197,-7.49,-4.62,-103.11,-0.24,2.74,-4.63,0.1,-0.14,1.03,1000
17:16:13.209,-7.46,-4.74,-103.16,1.16,2.8,-4.15,0.09,-0.13,1.03,1000
17:16:13.220,-7.37,-4.79,-103.2,2.68,3.29,-2.56,0.09,-0.12,1.01,1000
17:16:13.230,-7.28,-4.78,-103.22,4.09,3.54,-1.16,0.08,-0.12,1.01,1000
17:16:13.243,-7.2,-4.73,-103.23,4.82,3.23,0.49,0.07,-0.13,1.0,1000
17:16:13.253,-7.15,-4.64,-103.22,5.06,2.44,1.28,0.08,-0.13,1.0,1000
17:16:13.266,-7.15,-4.56,-103.2,4.51,1.89,1.16,0.08,-0.13,1.0,1000
17:16:13.286,-7.17,-4.5,-103.19,3.54,1.16,0.37,0.08,-0.14,1.0,1000
17:16:13.287,-7.24,-4.49,-103.2,2.01,0.49,-1.16,0.08,-0.13,1.0,1000
17:16:13.297,-7.32,-4.48,-103.21,0.91,0.18,-2.13,0.07,-0.14,1.0,1000
17:16:13.307,-7.44,-4.43,-103.24,-0.3,-0.24,-3.05,0.07,-0.15,1.0,1000
17:16:13.318,-7.59,-4.33,-103.27,-0.91,-0.55,-3.23,0.07,-0.14,1.0,1000
17:16:13.329,-7.7,-4.24,-103.31,-1.34,-1.4,-3.11,0.07,-0.14,1.01,1000
17:16:13.340,-7.76,-4.21,-103.34,-1.4,-2.07,-2.38,0.08,-0.13,1.01,1000
17:16:13.352,-7.73,-4.28,-103.36,-1.65,-3.11,-1.4,0.09,-0.13,1.02,1000
17:16:13.362,-7.68,-4.4,-103.37,-1.52,-4.02,-0.18,0.1,-0.13,1.03,1000
17:16:13.384,-7.61,-4.6,-103.37,-1.52,-4.51,0.55,0.1,-0.13,1.04,1000
17:16:13.385,-7.55,-4.84,-103.36,-0.85,-4.02,1.16,0.11,-0.14,1.04,1000
17:16:13.395,-7.54,-5.05,-103.35,-0.18,-2.62,1.46,0.11,-0.14,1.05,1000
17:16:13.406,-7.53,-5.21,-103.33,0.79,0.18,1.89,0.1,-0.14,1.04,1000
17:16:13.417,-7.52,-5.29,-103.31,1.95,2.32,2.62,0.1,-0.13,1.04,1000
17:16:13.430,-7.46,-5.29,-103.27,3.11,3.6,3.66,0.09,-0.13,1.03,1000
17:16:13.441,-7.37,-5.21,-103.23,4.02,3.72,4.33,0.08,-0.13,1.02,1000
17:16:13.450,-7.28,-5.03,-103.18,4.7,2.87,5.06,0.06,-0.13,1.02,1000
17:16:13.463,-7.2,-4.75,-103.12,5.18,1.83,5.24,0.05,-0.12,1.01,1000
17:16:13.473,-7.12,-4.39,-103.06,5.24,1.28,4.82,0.05,-0.12,1.01,1000
17:16:13.483,-7.03,-4.03,-103.01,4.82,1.16,4.21,0.04,-0.12,1.02,1000
17:16:13.494,-6.91,-3.73,-102.97,3.84,1.22,2.8,0.05,-0.12,1.02,1000
17:16:13.505,-6.77,-3.48,-102.95,2.74,1.34,0.91,0.06,-0.11,1.03,1000
17:16:13.516,-6.67,-3.38,-102.95,1.46,1.22,-0.85,0.07,-0.12,1.03,1000
17:16:13.527,-6.61,-3.41,-102.97,0.79,1.59,-2.93,0.08,-0.12,1.03,1000
17:16:13.538,-6.6,-3.52,-103.01,0.43,2.13,-4.39,0.08,-0.12,1.02,1000
17:16:13.550,-6.66,-3.68,-103.06,0.06,2.87,-5.18,0.09,-0.13,1.01,1000
17:16:13.560,-6.78,-3.89,-103.12,0.12,3.05,-5.49,0.09,-0.13,1.0,1000
17:16:13.572,-6.96,-4.07,-103.18,0.43,2.32,-5.0,0.08,-0.14,1.0,1000
17:16:13.592,-7.11,-4.18,-103.23,0.37,0.85,-4.02,0.09,-0.15,1.0,1000
17:16:13.593,-7.32,-4.3,-103.27,0.55,-0.98,-2.8,0.09,-0.15,1.01,1000
17:16:13.604,-7.53,-4.45,-103.29,0.43,-2.13,-1.4,0.09,-0.15,1.02,1000
17:16:13.615,-7.67,-4.6,-103.3,0.18,-1.89,0.37,0.09,-0.14,1.02,1000
17:16:13.628,-7.75,-4.72,-103.29,-0.06,-0.73,1.71,0.09,-0.14,1.03,1000
17:16:13.637,-7.78,-4.81,-103.26,-0.24,0.79,3.23,0.09,-0.14,1.04,1000
17:16:13.648,-7.74,-4.84,-103.22,-0.91,2.56,4.45,0.09,-0.13,1.03,1000
17:16:13.659,-7.65,-4.81,-103.17,-1.4,4.09,5.49,0.08,-0.13,1.03,1000
17:16:13.670,-7.52,-4.73,-103.1,-2.26,4.51,6.52,0.08,-0.12,1.03,1000
17:16:13.683,-7.41,-4.62,-103.03,-3.05,4.33,7.07,0.06,-0.12,1.02,1000
17:16:13.698,-7.3,-4.42,-102.95,-3.54,3.54,7.5,0.06,-0.12,1.02,1000
17:16:13.703,-7.2,-4.25,-102.87,-4.33,2.8,7.07,0.06,-0.12,1.03,1000
17:16:13.714,-7.12,-4.1,-102.79,-4.76,2.74,6.71,0.06,-0.11,1.03,1000
17:16:13.726,-7.06,-3.93,-102.72,-4.82,1.77,5.85,0.06,-0.13,1.04,1000
17:16:13.736,-7.05,-3.74,-102.66,-4.27,1.22,5.06,0.05,-0.13,1.03,1000
17:16:13.748,-7.09,-3.59,-102.61,-2.93,1.46,3.78,0.06,-0.13,1.03,1000
17:16:13.758,-7.14,-3.53,-102.57,-1.71,2.07,2.74,0.07,-0.13,1.03,1000
17:16:13.769,-7.2,-3.55,-102.55,-0.12,1.89,2.07,0.07,-0.13,1.02,1000
17:16:13.780,-7.22,-3.6,-102.53,1.22,1.34,1.52,0.07,-0.13,1.02,1000
17:16:13.795,-7.21,-3.64,-102.51,2.38,0.49,1.83,0.07,-0.13,1.03,1000
17:16:13.802,-7.15,-3.69,-102.49,3.29,-0.73,2.32,0.08,-0.12,1.03,1000
17:16:13.813,-7.06,-3.79,-102.46,3.78,-1.4,2.99,0.08,-0.12,1.04,1000
17:16:13.824,-6.94,-3.92,-102.42,4.09,-1.59,3.84,0.09,-0.12,1.04,1000
17:16:13.841,-6.8,-4.09,-102.38,4.57,-1.52,4.57,0.09,-0.11,1.05,1000
17:16:13.846,-6.66,-4.23,-102.32,4.82,-0.67,5.37,0.09,-0.11,1.04,1000
17:16:13.857,-6.43,-4.38,-102.26,5.3,0.24,6.16,0.09,-0.1,1.04,1000
17:16:13.871,-6.19,-4.47,-102.19,5.67,1.71,6.52,0.09,-0.09,1.04,1000
17:16:13.880,-5.95,-4.51,-102.12,5.55,2.74,6.71,0.08,-0.09,1.03,1000
17:16:13.893,-5.72,-4.47,-102.05,5.37,3.35,5.85,0.07,-0.1,1.02,1000
17:16:13.902,-5.59,-4.38,-101.99,4.76,3.23,4.7,0.06,-0.1,1.02,1000
17:16:13.912,-5.52,-4.22,-101.94,3.72,3.11,3.72,0.06,-0.1,1.02,1000
17:16:13.923,-5.49,-4.01,-101.91,2.74,3.54,2.56,0.05,-0.1,1.02,1000
17:16:13.934,-5.48,-3.78,-101.88,1.95,4.02,2.13,0.06,-0.1,1.01,1000
17:16:13.945,-5.45,-3.61,-101.86,0.98,4.94,2.2,0.06,-0.09,1.0,1000
17:16:13.960,-5.38,-3.46,-101.84,-0.06,6.16,2.26,0.05,-0.1,1.01,1000
17:16:13.968,-5.35,-3.32,-101.81,-0.98,8.05,2.56,0.05,-0.09,1.0,1000
17:16:13.983,-5.34,-3.17,-101.78,-1.77,10.24,2.44,0.05,-0.1,1.01,1000
17:16:13.991,-5.42,-2.98,-101.75,-2.93,10.49,1.77,0.04,-0.12,1.01,1000
17:16:14.002,-5.61,-2.76,-101.74,-4.02,10.06,0.49,0.03,-0.13,1.01,1000
17:16:14.011,-5.96,-2.47,-101.74,-4.57,9.02,-0.61,0.02,-0.15,1.02,1000
17:16:14.025,-6.4,-2.19,-101.75,-4.33,7.62,-0.79,0.03,-0.15,1.01,1000
17:16:14.033,-6.76,-2.0,-101.76,-3.54,6.04,-0.55,0.04,-0.15,1.01,1000
17:16:14.044,-7.14,-1.95,-101.76,-1.89,4.88,-0.06,0.05,-0.14,1.01,1000
17:16:14.056,-7.42,-2.01,-101.76,-0.49,3.48,1.16,0.06,-0.15,1.02,1000
17:16:14.066,-7.57,-2.13,-101.74,1.1,3.54,2.74,0.05,-0.14,1.02,1000
17:16:14.077,-7.62,-2.24,-101.7,2.93,4.63,4.63,0.05,-0.14,1.03,1000
17:16:14.088,-7.66,-2.27,-101.64,4.39,6.46,5.98,0.04,-0.15,1.04,1000
17:16:14.107,-7.75,-2.23,-101.57,5.61,8.17,6.71,0.04,-0.16,1.04,1000
17:16:14.110,-7.9,-2.12,-101.5,6.4,9.94,7.13,0.03,-0.16,1.03,1000
17:16:14.122,-8.01,-1.94,-101.41,6.83,10.98,7.68,0.02,-0.15,1.03,1000
17:16:14.132,-8.1,-1.64,-101.33,6.4,11.34,8.17,0.02,-0.16,1.04,1000
17:16:14.146,-8.15,-1.38,-101.23,6.22,10.85,8.72,0.01,-0.15,1.04,1000
17:16:14.154,-8.13,-1.17,-101.13,6.28,9.57,9.57,0.02,-0.14,1.05,1000
17:16:14.165,-8.03,-1.05,-101.02,6.71,8.6,10.18,0.03,-0.13,1.05,1000
17:16:14.176,-7.88,-1.0,-100.91,7.62,9.94,10.61,0.03,-0.13,1.05,1000
17:16:14.187,-7.68,-0.98,-100.79,11.1,9.02,10.79,0.03,-0.13,1.08,1000
17:16:14.207,-7.46,-1.04,-100.68,16.1,7.74,9.76,0.04,-0.14,1.08,1000
17:16:14.209,-7.31,-1.08,-100.59,21.89,7.32,8.11,0.02,-0.16,1.1,1000
17:16:14.220,-7.21,-1.0,-100.5,32.5,7.38,5.55,-0.0,-0.18,1.09,1000
17:16:14.231,-7.15,-0.84,-100.45,43.54,7.5,3.23,0.01,-0.16,1.08,1000
17:16:14.242,-6.92,-0.7,-100.43,54.82,8.72,-0.12,0.03,-0.12,1.09,1000
17:16:14.253,-6.33,-0.74,-100.45,65.24,9.21,-4.15,0.04,-0.08,1.08,1000
17:16:14.267,-5.45,-0.86,-100.53,77.13,8.35,-9.82,0.02,-0.08,1.09,1000
17:16:14.277,-4.48,-0.86,-100.67,89.63,6.83,-16.4,-0.01,-0.08,1.09,1000
17:16:14.290,-3.64,-0.64,-100.86,102.8,5.24,-22.87,-0.03,-0.09,1.09,1000
17:16:14.300,-2.72,-0.28,-101.18,117.5,4.21,-30.61,-0.02,-0.08,1.07,1000
17:16:14.309,-1.83,0.0,-101.54,127.68,6.4,-35.79,-0.0,-0.03,1.07,1000
17:16:14.319,-0.69,0.15,-101.95,133.78,10.91,-38.84,0.02,0.03,1.06,1000
17:16:14.330,0.84,0.14,-102.38,135.3,17.68,-38.96,0.02,0.09,1.06,1000
17:16:14.345,2.53,0.13,-102.77,132.74,25.12,-37.8,0.01,0.12,1.05,1000
17:16:14.353,4.4,0.3,-103.2,125.91,32.56,-34.27,0.01,0.16,1.05,1000
17:16:14.363,6.2,0.5,-103.56,118.48,36.4,-30.12,-0.01,0.18,1.05,1000
17:16:14.375,7.88,0.78,-103.86,109.45,38.84,-25.18,-0.01,0.19,1.05,1000
17:16:14.385,9.37,1.07,-104.12,101.1,39.88,-20.85,-0.01,0.21,1.04,1000
17:16:14.397,10.61,1.34,-104.33,93.6,40.67,-17.32,0.01,0.23,1.05,1000
17:16:14.409,11.64,1.44,-104.49,89.94,40.98,-15.49,0.01,0.24,1.07,1000
17:16:14.418,12.69,1.45,-104.68,90.91,42.68,-15.06,-0.0,0.23,1.07,1000
17:16:14.429,13.37,1.53,-104.83,94.88,45.73,-16.22,-0.02,0.21,1.07,1000
17:16:14.440,13.93,1.83,-105.03,101.22,51.59,-18.05,-0.04,0.21,1.06,1000
17:16:14.452,14.35,2.31,-105.24,107.07,58.72,-19.57,-0.06,0.23,1.04,1000
17:16:14.462,14.89,2.96,-105.46,110.3,64.76,-19.51,-0.08,0.25,1.02,1000
17:16:14.474,15.63,3.71,-105.66,110.67,68.66,-17.68,-0.09,0.3,1.0,1000
17:16:14.484,16.66,4.54,-105.84,108.78,69.76,-13.66,-0.11,0.34,0.98,1000
17:16:14.495,17.9,5.4,-105.96,106.4,70.18,-8.11,-0.12,0.37,0.97,1000
17:16:14.506,19.2,6.2,-106.02,105.49,69.94,-1.28,-0.13,0.38,0.96,1000
17:16:14.517,20.49,6.99,-106.0,107.44,69.82,5.12,-0.14,0.38,0.94,1000
17:16:14.529,21.68,7.78,-105.91,110.06,70.06,11.22,-0.14,0.38,0.9,1000
17:16:14.540,22.87,8.48,-105.76,112.01,69.09,16.65,-0.14,0.41,0.87,1000
17:16:14.551,24.13,9.08,-105.56,112.93,66.65,20.49,-0.15,0.44,0.87,1000
17:16:14.563,25.58,9.59,-105.32,113.35,63.9,23.72,-0.17,0.49,0.86,1000
17:16:14.574,27.21,10.13,-105.05,112.62,63.23,25.37,-0.18,0.53,0.84,1000
17:16:14.584,28.8,10.65,-104.79,110.12,63.72,25.85,-0.19,0.55,0.83,1000
17:16:14.597,30.54,11.32,-104.48,106.16,64.63,24.63,-0.21,0.57,0.81,1000
17:16:14.607,32.14,11.99,-104.22,103.48,64.76,22.74,-0.23,0.58,0.8,1000
17:16:14.617,33.49,12.64,-104.01,101.65,64.82,20.0,-0.24,0.58,0.78,1000
17:16:14.627,34.92,13.41,-103.79,99.09,66.16,16.1,-0.26,0.59,0.74,1000
17:16:14.638,36.07,14.06,-103.64,95.37,66.04,13.29,-0.21,0.62,0.75,1000
17:16:14.649,37.53,14.55,-103.5,90.0,66.34,9.76,-0.23,0.69,0.72,1000
17:16:14.660,39.17,14.82,-103.4,84.45,63.29,7.13,-0.25,0.71,0.68,1000
17:16:14.671,40.89,15.18,-103.34,76.95,56.16,4.21,-0.27,0.72,0.63,1000
17:16:14.682,42.45,15.66,-103.31,70.12,46.77,1.77,-0.29,0.71,0.63,1000
17:16:14.693,43.9,16.22,-103.3,62.62,37.38,-0.55,-0.3,0.71,0.6,1000
17:16:14.704,45.01,16.74,-103.31,55.24,31.16,-2.44,-0.3,0.72,0.6,1000
17:16:14.716,45.91,17.18,-103.35,47.44,28.11,-3.96,-0.3,0.71,0.6,1000
17:16:14.726,46.55,17.52,-103.4,38.35,26.28,-5.67,-0.3,0.7,0.59,1000
17:16:14.738,46.96,17.85,-103.47,28.23,24.51,-7.32,-0.3,0.7,0.59,1000
17:16:14.748,47.22,18.11,-103.56,15.85,21.77,-8.9,-0.31,0.72,0.59,1000
17:16:14.759,47.37,18.27,-103.66,2.87,20.18,-10.0,-0.3,0.74,0.59,1000
17:16:14.771,47.5,18.31,-103.77,-11.71,19.51,-10.37,-0.29,0.75,0.59,1000
17:16:14.783,47.56,18.24,-103.89,-26.16,19.39,-11.4,-0.29,0.75,0.59,1000
17:16:14.792,47.46,18.2,-104.02,-38.48,18.9,-12.26,-0.3,0.72,0.59,1000
17:16:14.803,47.19,18.23,-104.16,-50.37,17.07,-12.99,-0.31,0.7,0.58,1000
17:16:14.815,46.69,18.46,-104.3,-60.73,12.5,-13.35,-0.33,0.68,0.56,1000
17:16:14.826,46.03,18.8,-104.45,-70.98,5.67,-13.05,-0.35,0.67,0.56,1000
17:16:14.837,45.31,19.32,-104.59,-81.83,-3.11,-12.07,-0.35,0.67,0.56,1000
17:16:14.848,44.59,19.8,-104.72,-93.05,-11.89,-10.98,-0.36,0.66,0.56,1000
17:16:14.859,43.76,20.24,-104.83,-105.12,-21.16,-9.51,-0.36,0.63,0.57,1000
17:16:14.869,42.73,20.53,-104.93,-117.44,-29.57,-8.48,-0.36,0.62,0.59,1000
17:16:14.881,41.53,20.69,-105.02,-130.37,-35.91,-7.01,-0.35,0.59,0.61,1000
17:16:14.891,40.16,20.69,-105.09,-143.05,-40.3,-5.67,-0.35,0.58,0.63,1000
17:16:14.904,38.61,20.64,-105.14,-154.21,-42.74,-3.84,-0.34,0.55,0.65,1000
17:16:14.916,36.92,20.5,-105.17,-165.85,-43.9,-2.07,-0.34,0.52,0.68,1000
17:16:14.927,35.07,20.29,-105.19,-176.28,-45.06,-0.24,-0.33,0.5,0.71,1000
17:16:14.936,33.06,20.01,-105.18,-186.34,-46.46,1.77,-0.32,0.47,0.74,1000
17:16:14.948,30.89,19.65,-105.15,-194.33,-47.13,3.72,-0.31,0.44,0.77,1000
17:16:14.957,28.53,19.24,-105.1,-200.3,-47.93,5.37,-0.31,0.4,0.8,1000
17:16:14.969,26.05,18.82,-105.03,-203.6,-47.8,7.01,-0.31,0.35,0.82,1000
17:16:14.979,23.41,18.41,-104.95,-203.84,-47.13,7.87,-0.28,0.31,0.85,1000
17:16:14.990,20.85,17.89,-104.86,-201.71,-45.49,7.93,-0.26,0.26,0.87,1000
17:16:15.001,18.21,17.23,-104.78,-198.23,-43.72,7.38,-0.25,0.22,0.89,1000
17:16:15.022,15.67,16.53,-104.7,-194.27,-42.01,6.28,-0.24,0.19,0.9,1000
17:16:15.026,13.24,15.82,-104.64,-190.85,-41.89,5.55,-0.22,0.15,0.92,1000
17:16:15.035,10.93,15.09,-104.58,-186.95,-43.35,4.63,-0.23,0.14,0.94,1000
17:16:15.048,8.67,14.41,-104.53,-183.11,-45.79,3.84,-0.24,0.08,0.97,1000
17:16:15.057,6.37,13.8,-104.5,-178.11,-48.17,2.68,-0.23,0.04,0.98,1000
17:16:15.068,3.98,13.14,-104.47,-171.77,-48.35,1.59,-0.2,-0.0,0.99,1000
17:16:15.080,1.59,12.35,-104.46,-165.73,-46.46,0.43,-0.18,-0.05,1.0,1000
17:16:15.090,-0.39,11.68,-104.46,-161.04,-43.48,-0.06,-0.18,-0.07,1.0,1000
17:16:15.100,-2.61,10.93,-104.46,-156.34,-40.37,0.43,-0.16,-0.09,1.0,1000
17:16:15.111,-4.54,10.24,-104.45,-153.6,-38.72,1.46,-0.15,-0.11,0.99,1000
17:16:15.129,-6.3,9.58,-104.43,-152.56,-36.28,2.8,-0.15,-0.13,1.01,1000
17:16:15.134,-7.96,8.98,-104.39,-153.66,-33.48,4.57,-0.15,-0.16,1.04,1000
17:16:15.144,-9.56,8.51,-104.33,-155.12,-30.12,6.04,-0.15,-0.21,1.06,1000
17:16:15.156,-11.19,8.07,-104.25,-156.1,-26.04,7.87,-0.12,-0.24,1.06,1000
17:16:15.166,-12.85,7.6,-104.16,-155.55,-21.71,9.39,-0.11,-0.27,1.06,1000
17:16:15.177,-14.47,7.13,-104.05,-153.05,-16.28,11.22,-0.11,-0.3,1.05,1000
17:16:15.190,-16.13,6.7,-103.91,-150.12,-11.4,12.74,-0.11,-0.34,1.03,1000
17:16:15.199,-17.82,6.43,-103.77,-146.52,-7.99,14.15,-0.12,-0.37,1.01,1000
17:16:15.211,-19.51,6.27,-103.6,-142.93,-7.8,15.79,-0.13,-0.4,1.01,1000
17:16:15.227,-21.06,6.23,-103.42,-139.15,-8.17,17.44,-0.14,-0.41,1.01,1000
17:16:15.233,-22.45,6.28,-103.22,-135.61,-7.2,19.45,-0.14,-0.42,1.01,1000
17:16:15.243,-23.68,6.37,-103.0,-133.41,-4.39,21.52,-0.14,-0.44,1.01,1000
17:16:15.254,-24.82,6.54,-102.75,-132.07,-0.61,23.17,-0.15,-0.46,0.99,1000
17:16:15.265,-25.96,6.75,-102.49,-130.3,2.8,24.33,-0.15,-0.48,0.97,1000
17:16:15.277,-27.08,6.97,-102.22,-129.15,4.88,25.24,-0.14,-0.48,0.94,1000
17:16:15.291,-28.13,7.12,-101.94,-128.96,5.73,26.1,-0.13,-0.47,0.91,1000
17:16:15.301,-28.99,7.21,-101.65,-129.02,5.37,26.46,-0.13,-0.47,0.91,1000
17:16:15.316,-29.8,7.33,-101.36,-127.74,3.66,26.1,-0.16,-0.49,0.9,1000
17:16:15.329,-30.64,7.58,-101.07,-123.11,1.22,24.76,-0.18,-0.53,0.89,1000
17:16:15.335,-31.56,7.93,-100.81,-114.88,-1.04,21.77,-0.19,-0.57,0.88,1000
17:16:15.343,-32.5,8.35,-100.61,-103.48,-2.07,18.29,-0.19,-0.6,0.87,1000
17:16:15.353,-33.57,8.68,-100.43,-86.89,-2.56,13.96,-0.18,-0.63,0.86,1000
17:16:15.364,-34.61,8.86,-100.29,-64.88,-3.48,9.45,-0.16,-0.65,0.86,1000
17:16:15.375,-35.36,8.86,-100.21,-40.18,-5.0,5.0,-0.16,-0.67,0.86,1000
17:16:15.387,-35.9,8.73,-100.17,-14.63,-5.98,0.98,-0.14,-0.68,0.85,1000
17:16:15.397,-36.21,8.53,-100.18,10.3,-5.55,-2.44,-0.13,-0.68,0.84,1000
17:16:15.408,-36.34,8.2,-100.23,37.68,-4.88,-6.22,-0.13,-0.66,0.84,1000
17:16:15.419,-36.24,7.9,-100.3,56.46,-4.09,-8.48,-0.12,-0.64,0.84,1000
17:16:15.436,-35.73,7.64,-100.41,71.34,-4.82,-10.0,-0.14,-0.61,0.86,1000
17:16:15.442,-34.94,7.51,-100.53,77.56,-7.5,-10.85,-0.15,-0.58,0.89,1000
17:16:15.453,-33.85,7.48,-100.65,77.74,-8.9,-11.16,-0.16,-0.53,0.91,1000
17:16:15.464,-32.49,7.57,-100.77,74.09,-6.95,-10.67,-0.16,-0.51,0.92,1000
17:16:15.475,-31.13,7.69,-100.89,68.66,-2.38,-10.43,-0.15,-0.5,0.93,1000
17:16:15.486,-29.88,7.76,-101.0,63.48,2.93,-10.18,-0.13,-0.5,0.94,1000
17:16:15.497,-28.81,7.77,-101.11,59.88,8.35,-10.18,-0.13,-0.49,0.93,1000
17:16:15.508,-27.91,7.79,-101.22,58.9,12.93,-10.0,-0.14,-0.49,0.93,1000
17:16:15.519,-27.24,7.86,-101.32,60.67,14.27,-9.63,-0.14,-0.48,0.93,1000
17:16:15.529,-26.54,7.98,-101.43,66.28,13.9,-9.39,-0.14,-0.48,0.92,1000
17:16:15.543,-25.94,8.07,-101.54,72.8,12.38,-9.57,-0.14,-0.48,0.91,1000
17:16:15.552,-25.44,8.12,-101.64,80.85,11.04,-9.82,-0.15,-0.47,0.93,1000
17:16:15.563,-24.86,8.23,-101.75,89.02,10.67,-10.12,-0.16,-0.46,0.94,1000
17:16:15.574,-24.17,8.34,-101.86,96.28,11.22,-10.24,-0.14,-0.44,0.95,1000
17:16:15.585,-23.41,8.39,-101.98,102.2,13.6,-10.85,-0.14,-0.42,0.94,1000
17:16:15.598,-22.58,8.42,-102.1,106.46,17.13,-11.59,-0.14,-0.41,0.94,1000
17:16:15.608,-21.76,8.5,-102.22,108.84,20.49,-12.13,-0.15,-0.39,0.93,1000
17:16:15.621,-20.8,8.66,-102.37,108.41,23.17,-12.62,-0.16,-0.36,0.92,1000
17:16:15.641,-19.87,8.93,-102.5,105.79,23.35,-11.83,-0.19,-0.33,0.92,1000
17:16:15.644,-18.9,9.34,-102.62,101.52,21.95,-10.06,-0.2,-0.3,0.92,1000
17:16:15.651,-17.87,9.84,-102.72,97.62,20.18,-7.13,-0.2,-0.26,0.92,1000
17:16:15.662,-16.76,10.36,-102.78,92.07,18.17,-3.84,-0.19,-0.25,0.91,1000
17:16:15.672,-15.7,10.76,-102.81,86.04,15.91,-0.73,-0.19,-0.24,0.9,1000
17:16:15.684,-14.76,11.05,-102.8,79.27,11.83,2.38,-0.19,-0.23,0.9,1000
17:16:15.701,-13.87,11.3,-102.76,72.93,5.73,5.12,-0.22,-0.21,0.91,1000
17:16:15.705,-13.11,11.57,-102.71,68.17,-0.73,6.59,-0.25,-0.21,0.92,1000
17:16:15.724,-12.38,12.1,-102.62,64.63,-8.05,7.32,-0.27,-0.23,0.92,1000
17:16:15.728,-11.95,12.59,-102.55,63.72,-13.17,6.65,-0.27,-0.24,0.92,1000
17:16:15.743,-11.79,13.23,-102.48,64.39,-19.39,5.55,-0.26,-0.25,0.91,1000
17:16:15.749,-11.61,13.54,-102.42,66.16,-25.24,4.82,-0.25,-0.21,0.89,1000
17:16:15.760,-11.33,13.75,-102.37,67.68,-31.1,5.3,-0.25,-0.17,0.89,1000
17:16:15.771,-10.63,13.86,-102.3,68.6,-39.57,7.01,-0.25,-0.12,0.88,1000
17:16:15.783,-9.53,13.98,-102.21,68.48,-49.15,8.96,-0.26,-0.09,0.88,1000
17:16:15.794,-8.27,14.04,-102.1,68.54,-63.54,10.67,-0.26,-0.08,0.86,1000
17:16:15.804,-7.08,14.04,-101.98,70.06,-79.7,11.28,-0.25,-0.08,0.85,1000
17:16:15.815,-6.03,13.78,-101.86,72.07,-93.41,10.85,-0.22,-0.07,0.85,1000
17:16:15.827,-5.12,13.11,-101.75,71.95,-104.39,8.41,-0.17,-0.05,0.87,1000
17:16:15.839,-4.09,11.93,-101.68,68.54,-110.49,5.18,-0.11,0.0,0.89,1000
17:16:15.852,-2.79,10.34,-101.63,62.26,-113.78,1.83,-0.09,0.06,0.93,1000
17:16:15.859,-1.38,8.69,-101.63,53.41,-112.38,-1.77,-0.08,0.1,0.99,1000
17:16:15.870,0.35,6.94,-101.67,43.41,-110.79,-5.12,-0.04,0.11,1.02,1000
17:16:15.881,1.9,5.21,-101.74,35.24,-107.62,-8.6,-0.05,0.11,1.05,1000
17:16:15.909,3.07,3.71,-101.85,28.23,-102.99,-12.32,-0.02,0.08,1.07,1000
17:16:15.909,3.65,2.23,-102.01,22.87,-96.77,-16.71,0.02,0.04,1.1,1000
17:16:15.917,3.74,0.97,-102.2,18.29,-89.94,-19.88,0.04,0.04,1.11,1000
17:16:15.934,3.67,-0.4,-102.44,13.84,-81.89,-20.55,0.06,0.05,1.1,1000
17:16:15.941,3.59,-1.57,-102.65,12.44,-74.88,-17.2,0.07,0.06,1.07,1000
17:16:15.954,3.68,-2.51,-102.81,14.02,-68.9,-10.61,0.07,0.08,1.02,1000
17:16:15.960,4.14,-3.52,-102.9,17.07,-62.87,-2.68,0.16,0.17,0.98,1000
17:16:15.969,5.06,-4.82,-102.9,18.17,-60.0,0.91,0.23,0.2,0.98,1000
17:16:15.980,6.38,-6.85,-102.9,15.43,-59.82,-0.73,0.31,0.22,1.01,1000
17:16:15.991,7.51,-9.13,-102.94,8.05,-61.95,-8.78,0.3,0.16,1.08,1000
17:16:16.002,7.95,-10.87,-103.09,-0.55,-61.59,-20.73,0.27,0.11,1.12,1000
17:16:16.013,7.61,-12.11,-103.39,-10.55,-54.15,-34.63,0.24,0.04,1.17,1000
17:16:16.025,6.6,-12.6,-103.83,-20.0,-42.99,-46.59,0.2,-0.01,1.17,1000
17:16:16.035,5.43,-12.52,-104.33,-26.04,-31.04,-53.66,0.17,-0.0,1.18,1000
17:16:16.046,4.25,-12.15,-105.0,-29.15,-20.49,-58.23,0.16,0.01,1.13,1000
17:16:16.057,3.3,-11.67,-105.65,-28.41,-15.49,-58.66,0.19,0.02,1.09,1000
17:16:16.068,2.5,-11.49,-106.29,-27.2,-14.82,-57.68,0.28,0.03,1.05,1000
17:16:16.079,2.07,-11.98,-106.86,-26.71,-17.8,-56.4,0.31,0.04,1.06,1000
17:16:16.091,1.78,-12.77,-107.52,-24.88,-19.7,-53.78,0.3,0.04,1.05,1000
17:16:16.106,1.6,-13.54,-108.1,-22.99,-19.33,-51.83,0.29,0.03,1.08,1000
17:16:16.112,1.42,-14.05,-108.67,-20.91,-16.28,-50.91,0.26,0.02,1.08,1000
17:16:16.123,1.18,-14.13,-109.23,-16.83,-11.89,-50.91,0.21,0.01,1.09,1000
17:16:16.135,0.97,-13.8,-109.74,-10.85,-7.99,-51.34,0.17,-0.01,1.09,1000
17:16:16.149,0.62,-13.01,-110.36,-2.01,-4.15,-52.38,0.16,-0.02,1.07,1000
17:16:16.157,0.43,-12.34,-110.94,8.66,-0.06,-52.68,0.15,-0.02,1.03,1000
17:16:16.168,0.3,-11.59,-111.52,21.04,2.26,-53.11,0.19,-0.02,1.0,1000
17:16:16.179,0.32,-11.25,-112.1,34.51,0.73,-52.56,0.2,0.0,0.98,1000
17:16:16.190,0.59,-11.1,-112.67,47.01,-4.02,-50.85,0.18,-0.0,0.97,1000
17:16:16.201,0.93,-11.05,-113.22,61.04,-13.54,-48.48,0.18,-0.04,0.98,1000
17:16:16.213,1.02,-11.03,-113.69,74.7,-22.74,-45.0,0.13,-0.09,0.98,1000
17:16:16.223,0.94,-10.88,-114.2,90.98,-28.48,-38.96,0.15,-0.09,0.98,1000
17:16:16.235,0.54,-10.74,-114.62,103.78,-30.67,-31.22,0.19,-0.07,0.98,1000
17:16:16.258,0.71,-10.81,-114.9,113.11,-31.04,-21.95,0.14,-0.05,0.99,1000
17:16:16.259,0.98,-10.6,-115.07,123.05,-36.1,-8.54,0.1,-0.02,0.96,1000
17:16:16.266,1.67,-10.28,-115.09,135.0,-41.1,7.8,0.05,0.01,0.94,1000
17:16:16.277,2.43,-9.54,-114.91,148.48,-45.12,26.89,0.18,0.04,0.9,1000
17:16:16.288,3.64,-10.17,-114.54,158.23,-46.95,42.13,0.33,0.09,0.86,1000
17:16:16.299,5.24,-12.29,-114.02,163.17,-48.9,53.17,0.36,0.12,0.86,1000
17:16:16.310,7.08,-14.46,-113.38,166.71,-52.56,63.96,0.29,0.15,0.88,1000
17:16:16.321,8.86,-15.87,-112.63,170.98,-56.52,72.8,0.3,0.14,0.9,1000
17:16:16.332,10.5,-17.03,-111.79,174.02,-56.95,80.91,0.38,0.23,0.87,1000
17:16:16.349,12.52,-18.56,-110.87,173.41,-52.93,86.4,0.4,0.32,0.84,1000
17:16:16.358,14.76,-19.95,-109.98,171.71,-47.26,89.94,0.46,0.38,0.82,1000
17:16:16.365,17.56,-21.39,-108.9,163.72,-45.85,90.0,0.37,0.43,0.8,1000
17:16:16.376,20.24,-22.29,-107.92,151.77,-49.02,87.93,0.35,0.42,0.75,1000
17:16:16.388,22.72,-22.91,-106.97,138.96,-58.23,84.45,0.34,0.37,0.78,1000
17:16:16.399,24.27,-23.51,-106.06,130.12,-69.88,81.28,0.42,0.35,0.73,1000
17:16:16.411,25.33,-24.94,-105.19,123.11,-78.17,76.1,0.6,0.41,0.69,1000
17:16:16.420,26.27,-27.37,-104.38,112.93,-79.88,69.02,0.65,0.51,0.67,1000
17:16:16.433,27.38,-29.8,-103.66,100.3,-79.02,60.79,0.6,0.54,0.77,1000
17:16:16.443,28.46,-31.22,-103.04,87.13,-76.34,51.71,0.48,0.55,0.8,1000
17:16:16.461,29.28,-31.72,-102.56,74.94,-75.24,42.56,0.49,0.5,0.8,1000
17:16:16.464,29.59,-31.98,-102.1,61.16,-76.46,31.89,0.52,0.41,0.74,1000
17:16:16.475,29.25,-32.47,-101.82,52.13,-79.33,24.88,0.53,0.35,0.68,1000
17:16:16.486,28.51,-33.64,-101.55,46.77,-83.72,18.78,0.61,0.35,0.64,1000
17:16:16.497,27.63,-35.26,-101.36,48.35,-79.57,16.16,0.64,0.41,0.63,1000
17:16:16.508,27.19,-36.83,-101.19,49.57,-69.02,14.39,0.68,0.48,0.72,1000
17:16:16.520,26.95,-37.95,-101.05,49.02,-53.05,10.55,0.64,0.49,0.76,1000
17:16:16.530,26.78,-38.45,-100.96,49.57,-38.9,5.61,0.71,0.44,0.78,1000
17:16:16.543,26.66,-38.64,-100.93,45.43,-32.26,-0.67,0.67,0.45,0.72,1000
17:16:16.559,26.64,-38.76,-100.97,40.98,-34.21,-7.07,0.63,0.48,0.69,1000
17:16:16.564,26.72,-38.93,-101.06,39.21,-41.77,-11.34,0.61,0.46,0.63,1000
17:16:16.574,26.89,-39.46,-101.21,38.72,-52.8,-14.02,0.63,0.43,0.6,1000
17:16:16.585,26.98,-40.14,-101.36,40.85,-58.23,-14.82,0.68,0.43,0.59,1000
17:16:16.597,27.17,-41.08,-101.53,45.18,-57.68,-14.7,0.7,0.48,0.63,1000
17:16:16.607,27.44,-41.67,-101.68,50.37,-49.45,-14.88,0.72,0.52,0.66,1000
17:16:16.622,27.79,-42.08,-101.85,53.96,-37.74,-16.16,0.74,0.52,0.67,1000
17:16:16.630,28.17,-42.24,-102.05,53.96,-26.1,-18.23,0.71,0.55,0.68,1000
17:16:16.645,28.7,-41.91,-102.26,49.7,-19.63,-19.39,0.68,0.57,0.65,1000
17:16:16.667,29.42,-41.43,-102.47,41.34,-14.94,-19.51,0.67,0.59,0.62,1000
17:16:16.668,30.23,-40.9,-102.69,29.94,-12.26,-18.84,0.67,0.61,0.62,1000
17:16:16.673,30.86,-40.5,-102.87,18.35,-7.99,-17.87,0.68,0.64,0.62,1000
17:16:16.684,31.53,-40.0,-103.06,5.06,-1.22,-17.2,0.68,0.65,0.61,1000
17:16:16.695,32.02,-39.5,-103.25,-10.12,6.95,-16.77,0.66,0.64,0.63,1000
17:16:16.706,32.3,-38.86,-103.44,-25.43,16.59,-15.43,0.64,0.65,0.65,1000
17:16:16.718,32.47,-38.04,-103.6,-38.66,26.65,-12.62,0.64,0.66,0.66,1000
17:16:16.730,32.68,-37.03,-103.72,-50.79,36.89,-9.33,0.65,0.65,0.65,1000
17:16:16.739,32.6,-36.27,-103.81,-63.48,46.34,-6.22,0.65,0.63,0.64,1000
17:16:16.750,32.24,-35.69,-103.87,-76.34,52.44,-3.23,0.65,0.61,0.62,1000
17:16:16.766,31.78,-35.29,-103.88,-89.88,54.7,0.85,0.64,0.59,0.62,1000
17:16:16.773,31.24,-34.97,-103.85,-102.5,55.37,6.04,0.62,0.59,0.62,1000
17:16:16.783,30.77,-34.64,-103.76,-111.22,56.95,11.46,0.61,0.58,0.65,1000
17:16:16.794,30.17,-34.21,-103.6,-116.46,61.22,17.01,0.6,0.55,0.69,1000
17:16:16.807,29.4,-33.65,-103.4,-115.91,69.39,20.3,0.6,0.53,0.75,1000
17:16:16.816,28.37,-33.01,-103.16,-114.63,79.7,21.59,0.64,0.49,0.7,1000
17:16:16.828,27.32,-32.76,-102.95,-115.79,85.79,21.1,0.63,0.48,0.69,1000
17:16:16.838,26.12,-32.46,-102.7,-119.88,84.94,20.0,0.55,0.47,0.71,1000
17:16:16.851,25.29,-32.07,-102.51,-123.35,79.39,19.63,0.51,0.45,0.77,1000
17:16:16.860,24.23,-31.17,-102.27,-123.84,72.87,19.82,0.5,0.43,0.78,1000
17:16:16.873,23.24,-30.3,-102.05,-118.78,72.07,19.63,0.53,0.4,0.85,1000
17:16:16.882,22.05,-29.5,-101.84,-108.48,78.54,17.8,0.54,0.36,0.87,1000
17:16:16.893,20.77,-28.84,-101.66,-96.95,87.13,14.45,0.56,0.32,0.83,1000
17:16:16.904,19.47,-28.63,-101.53,-88.23,90.18,10.12,0.54,0.31,0.79,1000
17:16:16.915,18.39,-28.5,-101.43,-83.84,84.33,7.07,0.47,0.32,0.81,1000
17:16:16.929,17.72,-27.89,-101.36,-81.1,75.79,5.49,0.42,0.34,0.85,1000
17:16:16.937,17.3,-26.9,-101.3,-79.27,69.45,4.94,0.4,0.35,0.88,1000
17:16:16.951,16.91,-25.8,-101.26,-75.37,69.09,3.05,0.39,0.31,0.93,1000
17:16:16.967,16.39,-24.56,-101.24,-68.9,73.23,-0.06,0.39,0.26,0.96,1000
17:16:16.974,15.52,-23.33,-101.26,-62.2,78.84,-4.51,0.4,0.22,0.97,1000
17:16:16.981,14.59,-22.43,-101.32,-56.46,83.9,-8.72,0.4,0.2,0.96,1000
17:16:16.992,13.42,-21.5,-101.45,-52.56,88.48,-12.56,0.39,0.2,0.95,1000
17:16:17.003,12.54,-20.71,-101.6,-54.27,90.98,-13.78,0.37,0.22,0.96,1000
17:16:17.014,11.9,-19.95,-101.75,-60.24,91.46,-12.74,0.35,0.24,0.97,1000
17:16:17.025,11.46,-19.1,-101.87,-68.72,89.76,-9.82,0.33,0.24,0.98,1000
17:16:17.036,11.04,-18.13,-101.96,-77.99,86.77,-5.67,0.29,0.22,1.0,1000
17:16:17.047,10.46,-17.12,-102.0,-85.55,84.21,-1.59,0.27,0.2,1.01,1000
17:16:17.059,9.8,-16.05,-102.0,-91.1,82.56,1.71,0.28,0.16,1.01,1000
17:16:17.071,8.82,-15.13,-101.97,-95.37,81.89,3.78,0.27,0.12,1.01,1000
17:16:17.080,7.66,-14.34,-101.92,-99.09,84.33,5.18,0.25,0.1,1.0,1000
17:16:17.091,6.39,-13.53,-101.86,-106.34,88.29,6.65,0.24,0.08,1.01,1000
17:16:17.102,5.07,-12.73,-101.78,-115.43,92.2,8.23,0.23,0.08,1.05,1000
17:16:17.113,3.83,-11.8,-101.68,-125.3,93.96,11.28,0.19,0.08,1.07,1000
17:16:17.124,2.69,-10.73,-101.53,-131.89,94.09,15.06,0.16,0.06,1.07,1000
17:16:17.136,1.59,-9.61,-101.34,-135.12,93.9,19.51,0.15,0.03,1.05,1000
17:16:17.146,0.55,-8.62,-101.14,-134.88,92.56,22.74,0.13,-0.01,1.03,1000
17:16:17.160,-0.92,-7.49,-100.85,-130.73,89.57,25.49,0.11,-0.07,1.02,1000
17:16:17.170,-2.4,-6.5,-100.56,-124.57,86.46,27.87,0.09,-0.09,1.0,1000
17:16:17.179,-3.92,-5.54,-100.24,-117.5,85.85,30.61,0.08,-0.1,1.01,1000
17:16:17.190,-5.26,-4.62,-99.89,-110.24,86.1,32.5,0.08,-0.12,1.02,1000
17:16:17.201,-6.49,-3.77,-99.53,-103.35,87.56,32.62,0.06,-0.14,1.04,1000
17:16:17.213,-7.62,-2.85,-99.18,-95.3,88.9,30.98,0.02,-0.16,1.04,1000
17:16:17.224,-8.67,-1.8,-98.85,-85.3,90.18,28.23,-0.0,-0.19,1.03,1000
17:16:17.235,-9.67,-0.68,-98.55,-74.39,91.28,24.7,-0.02,-0.2,1.02,1000
17:16:17.245,-10.46,0.32,-98.32,-63.48,91.4,21.4,-0.04,-0.21,1.01,1000
17:16:17.263,-11.18,1.42,-98.1,-52.5,90.98,18.41,-0.05,-0.2,0.99,1000
17:16:17.281,-11.69,2.55,-97.89,-43.41,90.06,16.4,-0.06,-0.19,0.98,1000
17:16:17.282,-11.93,3.49,-97.72,-37.62,90.06,15.61,-0.04,-0.17,0.99,1000
17:16:17.289,-11.93,4.15,-97.57,-35.91,90.24,14.45,-0.05,-0.15,0.98,1000
17:16:17.300,-11.64,4.84,-97.4,-35.91,95.43,12.99,-0.08,-0.14,0.99,1000
17:16:17.312,-11.26,5.58,-97.27,-38.66,98.66,11.04,-0.11,-0.14,0.99,1000
17:16:17.323,-11.06,6.57,-97.16,-43.29,98.84,8.72,-0.17,-0.17,0.97,1000
17:16:17.334,-11.01,7.94,-97.07,-47.01,96.77,6.52,-0.21,-0.18,0.93,1000
17:16:17.346,-11.35,9.44,-97.01,-51.46,92.2,4.21,-0.21,-0.2,0.92,1000
17:16:17.356,-11.86,10.75,-96.97,-56.28,88.11,2.99,-0.21,-0.21,0.9,1000
17:16:17.367,-12.33,11.87,-96.95,-60.85,85.91,1.77,-0.2,-0.21,0.9,1000
17:16:17.383,-12.97,12.73,-96.93,-64.57,87.87,0.37,-0.17,-0.21,0.94,1000
17:16:17.388,-13.48,13.18,-96.93,-68.23,95.67,-1.04,-0.17,-0.21,0.96,1000
17:16:17.400,-13.9,13.57,-96.95,-72.07,107.56,-1.77,-0.21,-0.24,0.96,1000
17:16:17.411,-14.47,14.24,-96.97,-76.89,118.78,-2.93,-0.26,-0.29,0.91,1000
17:16:17.424,-15.44,15.38,-97.01,-81.89,121.4,-3.96,-0.32,-0.33,0.87,1000
17:16:17.433,-16.75,16.93,-97.06,-86.59,116.28,-4.02,-0.38,-0.35,0.8,1000
17:16:17.443,-18.36,18.92,-97.09,-90.73,106.77,-1.83,-0.39,-0.36,0.76,1000
17:16:17.454,-19.93,20.74,-97.1,-94.02,98.72,2.13,-0.36,-0.35,0.77,1000
17:16:17.466,-21.48,22.19,-97.03,-98.41,92.87,9.15,-0.32,-0.36,0.77,1000
17:16:17.480,-22.55,22.85,-96.91,-101.65,94.82,15.67,-0.32,-0.36,0.8,1000
17:16:17.487,-23.56,23.4,-96.7,-105.43,98.05,22.56,-0.36,-0.38,0.8,1000
17:16:17.498,-24.54,23.96,-96.43,-107.68,100.91,27.8,-0.4,-0.42,0.8,1000
17:16:17.509,-25.54,24.73,-96.14,-109.33,100.3,31.4,-0.45,-0.45,0.75,1000
17:16:17.520,-26.84,26.09,-95.74,-109.63,94.33,35.12,-0.51,-0.48,0.73,1000
17:16:17.531,-28.03,27.51,-95.34,-108.9,85.24,38.11,-0.53,-0.49,0.71,1000
17:16:17.544,-29.12,28.87,-94.9,-107.13,75.12,41.83,-0.53,-0.49,0.72,1000
17:16:17.554,-29.99,29.91,-94.42,-103.84,70.55,45.3,-0.5,-0.49,0.75,1000
17:16:17.567,-30.66,30.5,-93.91,-99.88,71.16,47.68,-0.47,-0.51,0.75,1000
17:16:17.577,-31.21,30.72,-93.43,-95.73,77.56,48.48,-0.48,-0.53,0.75,1000
17:16:17.589,-31.95,31.06,-92.85,-91.28,84.82,47.74,-0.52,-0.55,0.71,1000
17:16:17.597,-32.62,31.61,-92.34,-87.93,87.68,45.55,-0.58,-0.56,0.67,1000
17:16:17.608,-33.16,32.68,-91.85,-85.3,85.24,42.87,-0.65,-0.55,0.62,1000
17:16:17.619,-33.54,34.22,-91.39,-82.5,78.17,40.12,-0.69,-0.54,0.6,1000
17:16:17.630,-33.72,35.89,-90.96,-80.18,70.06,37.44,-0.68,-0.54,0.59,1000
17:16:17.644,-33.84,37.32,-90.56,-77.87,64.7,35.18,-0.66,-0.54,0.59,1000
17:16:17.652,-33.94,38.43,-90.19,-75.67,62.01,33.05,-0.65,-0.53,0.56,1000
17:16:17.670,-34.13,39.37,-89.84,-72.38,60.91,28.29,-0.68,-0.57,0.54,1000
17:16:17.674,-34.36,40.19,-89.6,-66.71,59.27,20.67,-0.71,-0.58,0.53,1000
17:16:17.688,-34.53,41.07,-89.41,-59.15,55.43,12.56,-0.72,-0.56,0.53,1000
17:16:17.696,-34.53,41.96,-89.3,-51.16,50.24,6.28,-0.72,-0.54,0.5,1000
17:16:17.707,-34.35,42.69,-89.25,-44.63,46.04,3.9,-0.72,-0.53,0.49,1000
17:16:17.718,-34.09,43.51,-89.21,-38.11,39.76,2.56,-0.72,-0.54,0.46,1000
17:16:17.730,-33.83,44.19,-89.18,-32.56,32.13,1.89,-0.71,-0.55,0.46,1000
17:16:17.743,-33.67,44.69,-89.16,-27.38,26.28,2.32,-0.72,-0.54,0.45,1000
17:16:17.752,-33.49,45.06,-89.13,-21.59,22.5,3.11,-0.7,-0.54,0.47,1000
17:16:17.762,-33.35,45.18,-89.1,-17.01,21.83,3.54,-0.68,-0.54,0.47,1000
17:16:17.773,-33.19,45.2,-89.06,-12.62,22.44,3.54,-0.69,-0.54,0.47,1000
17:16:17.793,-33.01,45.25,-89.02,-9.33,22.13,3.11,-0.71,-0.54,0.47,1000
17:16:17.797,-32.76,45.37,-88.99,-6.1,19.82,2.44,-0.72,-0.54,0.45,1000
17:16:17.807,-32.57,45.54,-88.96,-4.51,15.79,1.95,-0.72,-0.53,0.44,1000
17:16:17.818,-32.41,45.74,-88.94,-3.17,10.85,2.07,-0.73,-0.54,0.43,1000
17:16:17.829,-32.29,45.9,-88.92,-1.77,6.59,2.07,-0.71,-0.54,0.44,1000
17:16:17.839,-32.24,45.93,-88.9,-0.55,2.32,1.77,-0.71,-0.55,0.44,1000
17:16:17.853,-32.32,45.79,-88.88,0.98,0.79,1.46,-0.7,-0.56,0.45,1000
17:16:17.861,-32.44,45.52,-88.87,3.48,-0.12,0.43,-0.68,-0.57,0.46,1000
17:16:17.874,-32.7,45.03,-88.87,6.89,-0.3,-0.49,-0.67,-0.58,0.46,1000
17:16:17.888,-32.91,44.58,-88.88,9.63,-1.04,-1.71,-0.69,-0.58,0.46,1000
17:16:17.898,-33.02,44.3,-88.9,11.83,-2.93,-2.44,-0.71,-0.58,0.45,1000
17:16:17.908,-33.07,44.1,-88.93,14.02,-6.59,-2.87,-0.71,-0.57,0.46,1000
17:16:17.917,-33.01,43.96,-88.96,15.55,-9.09,-2.8,-0.7,-0.58,0.49,1000
17:16:17.928,-32.98,43.69,-88.99,17.07,-8.48,-1.65,-0.68,-0.56,0.49,1000
17:16:17.938,-32.91,43.4,-89.01,17.13,-6.34,-1.28,-0.67,-0.57,0.5,1000
17:16:17.952,-32.87,43.1,-89.02,16.83,-4.09,-1.71,-0.69,-0.57,0.49,1000
17:16:17.960,-32.85,42.93,-89.04,15.3,-2.8,-1.77,-0.7,-0.57,0.48,1000
17:16:17.971,-32.83,42.95,-89.06,13.23,-3.35,-2.56,-0.71,-0.56,0.46,1000
17:16:17.989,-32.75,43.09,-89.09,12.38,-4.27,-2.8,-0.7,-0.55,0.47,1000
17:16:17.996,-32.69,43.22,-89.13,11.34,-5.98,-3.29,-0.69,-0.55,0.47,1000
17:16:18.004,-32.66,43.26,-89.17,9.76,-6.4,-3.6,-0.69,-0.55,0.47,1000
17:16:18.016,-32.67,43.24,-89.21,8.54,-7.5,-4.21,-0.69,-0.56,0.47,1000
17:16:18.027,-32.7,43.22,-89.26,8.78,-8.84,-4.7,-0.7,-0.56,0.46,1000
17:16:18.038,-32.73,43.22,-89.32,10.3,-10.24,-5.55,-0.7,-0.56,0.46,1000
17:16:18.049,-32.7,43.23,-89.38,13.23,-12.62,-5.91,-0.69,-0.55,0.46,1000
17:16:18.059,-32.63,43.23,-89.44,16.83,-14.7,-6.04,-0.67,-0.54,0.46,1000
17:16:18.081,-32.55,43.12,-89.51,20.85,-17.93,-7.32,-0.66,-0.54,0.48,1000
17:16:18.102,-32.46,42.88,-89.6,25.79,-21.95,-9.76,-0.68,-0.56,0.48,1000
17:16:18.103,-32.4,42.65,-89.72,30.79,-24.82,-13.66,-0.68,-0.57,0.48,1000
17:16:18.104,-32.38,42.35,-89.89,36.46,-28.17,-18.54,-0.69,-0.59,0.49,1000
17:16:18.115,-32.33,41.97,-90.15,43.66,-31.22,-25.43,-0.68,-0.58,0.51,1000
17:16:18.135,-32.23,41.61,-90.43,50.98,-33.35,-30.55,-0.67,-0.58,0.53,1000
17:16:18.150,-32.02,41.12,-90.79,60.79,-34.76,-36.1,-0.64,-0.56,0.56,1000
17:16:18.159,-31.62,40.44,-91.26,73.29,-34.57,-43.9,-0.61,-0.55,0.56,1000
17:16:18.171,-31.25,39.82,-91.74,83.23,-33.41,-51.71,-0.61,-0.56,0.56,1000
17:16:18.171,-30.8,39.13,-92.41,94.21,-33.41,-62.26,-0.64,-0.56,0.58,1000
17:16:18.181,-30.41,38.63,-93.07,101.52,-35.98,-70.79,-0.67,-0.59,0.6,1000
17:16:18.214,-30.05,38.19,-93.89,106.95,-41.16,-78.11,-0.68,-0.61,0.61,1000
17:16:18.215,-29.48,37.7,-94.85,113.54,-50.37,-82.32,-0.66,-0.58,0.62,1000
17:16:18.220,-29.19,37.19,-95.76,120.73,-59.02,-82.93,-0.64,-0.57,0.63,1000
17:16:18.227,-28.84,36.52,-96.67,127.26,-67.07,-80.79,-0.58,-0.55,0.63,1000
17:16:18.236,-28.31,35.65,-97.54,132.87,-72.2,-77.5,-0.55,-0.54,0.65,1000
17:16:18.246,-27.92,34.62,-98.37,136.89,-76.77,-72.87,-0.54,-0.54,0.67,1000
17:16:18.258,-27.52,33.43,-99.15,139.39,-81.1,-68.6,-0.53,-0.53,0.71,1000
17:16:18.269,-27.07,32.2,-99.88,140.73,-86.65,-63.6,-0.51,-0.53,0.71,1000
17:16:18.284,-26.66,30.98,-100.55,142.74,-91.83,-58.23,-0.49,-0.51,0.72,1000
17:16:18.303,-26.21,29.74,-101.17,146.1,-97.32,-52.32,-0.45,-0.48,0.72,1000
17:16:18.304,-25.53,28.47,-101.72,149.63,-101.77,-47.68,-0.41,-0.43,0.73,1000
17:16:18.313,-24.79,27.08,-102.23,152.2,-104.45,-44.7,-0.39,-0.39,0.75,1000
17:16:18.324,-23.76,25.68,-102.71,153.11,-106.4,-43.6,-0.36,-0.37,0.78,1000
17:16:18.335,-22.59,24.22,-103.2,152.13,-107.38,-45.0,-0.35,-0.36,0.81,1000
17:16:18.346,-21.47,22.92,-103.66,148.9,-106.89,-47.13,-0.36,-0.35,0.85,1000
17:16:18.357,-20.12,21.48,-104.24,142.2,-102.68,-50.55,-0.33,-0.32,0.88,1000
17:16:18.367,-18.74,20.1,-104.81,134.09,-95.24,-53.05,-0.29,-0.27,0.91,1000
17:16:18.378,-17.22,18.65,-105.4,122.2,-85.49,-54.33,-0.25,-0.22,0.93,1000
17:16:18.389,-15.55,17.15,-106.0,108.66,-74.63,-54.21,-0.22,-0.17,0.95,1000
17:16:18.407,-13.72,15.73,-106.59,92.5,-63.78,-52.44,-0.21,-0.13,0.96,1000
17:16:18.411,-11.93,14.44,-107.16,75.79,-55.43,-50.18,-0.2,-0.11,0.99,1000
17:16:18.422,-10.31,13.25,-107.69,61.22,-49.45,-47.44,-0.21,-0.13,1.0,1000
17:16:18.433,-9.28,12.38,-108.2,48.9,-43.96,-43.48,-0.21,-0.15,0.99,1000
17:16:18.446,-8.72,11.71,-108.66,40.3,-39.39,-39.39,-0.21,-0.17,0.98,1000
17:16:18.455,-8.58,11.27,-109.06,34.02,-35.55,-34.15,-0.21,-0.19,0.96,1000
17:16:18.466,-8.68,10.96,-109.41,30.0,-33.54,-28.11,-0.2,-0.17,0.95,1000
17:16:18.477,-8.87,10.75,-109.69,27.8,-32.74,-22.2,-0.2,-0.17,0.96,1000
17:16:18.489,-8.97,10.48,-109.91,25.43,-31.89,-16.34,-0.18,-0.17,0.96,1000
17:16:18.505,-9.14,10.21,-110.06,23.41,-30.79,-11.4,-0.18,-0.19,0.96,1000
17:16:18.510,-9.34,9.95,-110.17,21.34,-29.63,-7.26,-0.19,-0.2,0.96,1000
17:16:18.522,-9.77,9.8,-110.24,20.61,-30.43,-4.51,-0.19,-0.22,0.95,1000
17:16:18.533,-10.22,9.64,-110.27,21.83,-34.21,-2.07,-0.19,-0.22,0.94,1000
17:16:18.544,-10.7,9.5,-110.28,25.24,-38.78,0.37,-0.19,-0.23,0.93,1000
17:16:18.555,-11.06,9.31,-110.27,29.02,-42.2,2.26,-0.18,-0.22,0.93,1000
17:16:18.566,-11.4,9.12,-110.24,32.99,-43.41,3.78,-0.16,-0.23,0.95,1000
17:16:18.578,-11.64,8.73,-110.19,35.06,-42.93,4.51,-0.13,-0.21,0.97,1000
17:16:18.591,-11.63,8.22,-110.15,35.18,-40.49,4.82,-0.13,-0.19,0.99,1000
17:16:18.598,-11.42,7.62,-110.08,33.54,-35.43,5.43,-0.12,-0.19,1.01,1000
17:16:18.610,-11.14,7.11,-110.02,31.46,-31.95,6.1,-0.12,-0.18,1.02,1000
17:16:18.621,-10.84,6.66,-109.95,29.57,-28.6,6.77,-0.11,-0.17,1.02,1000
17:16:18.631,-10.46,6.25,-109.88,27.56,-25.06,7.26,-0.1,-0.16,1.02,1000
17:16:18.642,-10.04,5.82,-109.79,24.33,-22.01,7.38,-0.08,-0.14,1.02,1000
17:16:18.653,-9.57,5.39,-109.72,19.76,-19.09,6.65,-0.09,-0.12,1.02,1000
17:16:18.664,-9.14,5.08,-109.65,13.96,-17.07,5.67,-0.1,-0.12,1.03,1000
17:16:18.676,-8.7,4.92,-109.59,7.07,-16.16,4.15,-0.11,-0.12,1.04,1000
17:16:18.687,-8.36,4.88,-109.55,0.55,-16.22,3.11,-0.12,-0.12,1.05,1000
17:16:18.698,-8.16,4.91,-109.52,-5.79,-16.65,2.99,-0.12,-0.12,1.05,1000
17:16:18.713,-8.03,4.97,-109.48,-9.88,-18.05,4.51,-0.11,-0.11,1.04,1000
17:16:18.723,-7.91,4.96,-109.42,-10.98,-19.94,6.77,-0.1,-0.12,1.03,1000
17:16:18.730,-7.78,4.9,-109.33,-10.12,-21.16,9.76,-0.08,-0.13,1.02,1000
17:16:18.741,-7.77,4.67,-109.21,-7.8,-21.16,12.2,-0.08,-0.14,1.03,1000
17:16:18.753,-7.85,4.37,-109.07,-4.76,-20.37,13.54,-0.07,-0.15,1.04,1000
17:16:18.763,-7.96,4.08,-108.92,-1.59,-18.6,13.54,-0.07,-0.14,1.05,1000
17:16:18.774,-8.03,3.81,-108.78,0.3,-16.22,12.26,-0.07,-0.14,1.06,1000
17:16:18.785,-8.05,3.63,-108.65,1.04,-13.41,9.63,-0.08,-0.14,1.06,1000
17:16:18.797,-8.03,3.54,-108.56,0.73,-11.16,7.13,-0.08,-0.14,1.06,1000
17:16:18.820,-8.02,3.49,-108.49,-0.3,-10.0,4.57,-0.07,-0.14,1.06,1000
17:16:18.821,-7.99,3.43,-108.45,-0.67,-9.94,2.62,-0.07,-0.13,1.05,1000
17:16:18.829,-7.91,3.37,-108.43,-0.43,-11.1,1.77,-0.06,-0.13,1.04,1000
17:16:18.840,-7.82,3.28,-108.41,0.79,-13.05,1.65,-0.06,-0.12,1.03,1000
17:16:18.851,-7.67,3.16,-108.39,2.68,-15.12,2.44,-0.06,-0.12,1.03,1000
17:16:18.862,-7.56,3.02,-108.36,4.45,-16.59,3.54,-0.06,-0.13,1.04,1000
17:16:18.875,-7.45,2.91,-108.32,5.98,-16.95,4.15,-0.06,-0.12,1.05,1000
17:16:18.885,-7.35,2.81,-108.27,7.07,-15.85,4.82,-0.06,-0.12,1.05,1000
17:16:18.898,-7.22,2.75,-108.21,7.68,-13.6,4.88,-0.05,-0.12,1.06,1000
17:16:18.914,-7.07,2.66,-108.16,7.32,-10.61,4.27,-0.05,-0.11,1.06,1000
17:16:18.917,-6.9,2.58,-108.12,6.59,-7.62,3.11,-0.04,-0.11,1.06,1000
17:16:18.928,-6.78,2.48,-108.1,4.76,-4.76,1.4,-0.04,-0.11,1.05,1000
17:16:18.940,-6.64,2.39,-108.09,2.74,-2.5,0.06,-0.04,-0.11,1.05,1000
17:16:18.950,-6.56,2.33,-108.09,0.85,-0.85,-0.49,-0.04,-0.11,1.04,1000
17:16:18.962,-6.52,2.24,-108.1,-1.04,-0.43,-0.98,-0.03,-0.11,1.04,1000
17:16:18.973,-6.5,2.13,-108.11,-2.87,-0.49,-0.3,-0.03,-0.11,1.03,1000
17:16:18.984,-6.52,1.99,-108.1,-4.21,-1.22,0.85,-0.02,-0.11,1.03,1000
17:16:18.995,-6.56,1.85,-108.09,-5.24,-2.44,2.07,-0.02,-0.12,1.02,1000
17:16:19.005,-6.68,1.7,-108.06,-5.61,-4.09,3.96,-0.03,-0.12,1.02,1000
17:16:19.021,-6.78,1.6,-108.01,-5.3,-5.06,5.91,-0.03,-0.13,1.02,1000
17:16:19.028,-6.92,1.51,-107.94,-4.15,-5.73,7.26,-0.03,-0.13,1.01,1000
17:16:19.038,-7.09,1.4,-107.84,-2.56,-6.04,8.29,-0.02,-0.13,1.02,1000
17:16:19.050,-7.23,1.29,-107.75,-1.16,-5.85,8.29,-0.03,-0.13,1.02,1000
17:16:19.061,-7.34,1.25,-107.66,0.18,-5.06,7.8,-0.03,-0.13,1.03,1000
17:16:19.071,-7.4,1.25,-107.58,1.22,-3.9,6.77,-0.03,-0.13,1.03,1000
17:16:19.083,-7.42,1.26,-107.52,2.01,-2.99,5.49,-0.02,-0.13,1.03,1000
17:16:19.093,-7.39,1.24,-107.46,2.38,-2.38,4.21,-0.02,-0.12,1.02,1000
17:16:19.104,-7.32,1.21,-107.42,2.26,-1.89,2.99,-0.03,-0.12,1.02,1000
17:16:19.116,-7.19,1.23,-107.39,2.26,-2.01,1.95,-0.03,-0.11,1.02,1000
17:16:19.126,-7.07,1.27,-107.38,1.95,-2.93,1.34,-0.03,-0.12,1.02,1000
17:16:19.137,-6.98,1.26,-107.36,1.83,-4.63,0.67,-0.02,-0.12,1.02,1000
17:16:19.148,-6.9,1.2,-107.36,1.95,-5.98,0.49,-0.02,-0.11,1.02,1000
17:16:19.159,-6.83,1.16,-107.35,2.44,-6.22,0.43,-0.03,-0.12,1.02,1000
17:16:19.171,-6.79,1.14,-107.34,3.29,-6.1,0.67,-0.02,-0.12,1.02,1000
17:16:19.188,-6.76,1.11,-107.34,4.02,-5.91,0.98,-0.03,-0.12,1.02,1000
17:16:19.194,-6.72,1.11,-107.32,4.63,-5.24,1.28,-0.03,-0.11,1.02,1000
17:16:19.210,-6.67,1.12,-107.3,4.88,-5.49,1.4,-0.02,-0.12,1.01,1000
17:16:19.215,-6.61,1.08,-107.29,4.94,-5.79,1.16,-0.02,-0.11,1.02,1000
17:16:19.228,-6.55,0.99,-107.28,4.7,-6.28,0.61,-0.01,-0.11,1.02,1000
17:16:19.237,-6.5,0.89,-107.28,4.33,-6.95,-0.3,-0.02,-0.11,1.02,1000
17:16:19.247,-6.46,0.8,-107.29,4.02,-7.38,-1.4,-0.02,-0.11,1.03,1000
17:16:19.259,-6.44,0.74,-107.31,3.96,-7.07,-2.13,-0.01,-0.11,1.04,1000
17:16:19.270,-6.4,0.68,-107.34,3.84,-5.98,-2.38,-0.01,-0.11,1.04,1000
17:16:19.280,-6.31,0.63,-107.36,3.9,-4.33,-2.13,-0.01,-0.1,1.04,1000
17:16:19.292,-6.2,0.61,-107.38,3.72,-2.87,-1.34,-0.01,-0.1,1.03,1000
17:16:19.302,-6.11,0.56,-107.4,3.54,-1.83,-1.22,-0.0,-0.1,1.03,1000
17:16:19.318,-6.02,0.47,-107.41,3.29,-2.2,-0.67,0.0,-0.09,1.03,1000
17:16:19.330,-5.95,0.36,-107.41,2.74,-2.68,-0.12,0.0,-0.1,1.03,1000
17:16:19.336,-5.87,0.22,-107.41,2.13,-3.23,-0.24,0.0,-0.1,1.03,1000
17:16:19.347,-5.82,0.13,-107.41,1.65,-3.72,-0.18,-0.01,-0.1,1.03,1000
17:16:19.358,-5.8,0.13,-107.41,1.1,-3.96,-0.43,-0.01,-0.1,1.04,1000
17:16:19.368,-5.78,0.15,-107.42,0.73,-3.72,-0.73,-0.01,-0.1,1.04,1000
17:16:19.380,-5.77,0.14,-107.43,0.0,-2.56,-1.46,0.0,-0.1,1.04,1000
17:16:19.390,-5.75,0.1,-107.45,-0.73,-0.98,-1.59,-0.0,-0.1,1.04,1000
17:16:19.401,-5.72,0.09,-107.47,-1.83,1.34,-1.95,-0.01,-0.1,1.04,1000
17:16:19.413,-5.69,0.13,-107.49,-2.5,3.17,-1.71,-0.02,-0.09,1.04,1000
17:16:19.423,-5.66,0.25,-107.5,-2.99,3.9,-1.46,-0.02,-0.1,1.04,1000
17:16:19.434,-5.7,0.39,-107.52,-3.29,4.09,-1.22,-0.01,-0.1,1.03,1000
17:16:19.445,-5.76,0.47,-107.53,-2.99,3.11,-0.91,-0.01,-0.11,1.02,1000
17:16:19.456,-5.84,0.51,-107.54,-2.93,1.52,-0.3,-0.01,-0.1,1.02,1000
17:16:19.467,-5.91,0.52,-107.54,-2.62,-0.06,0.24,-0.01,-0.11,1.02,1000
17:16:19.478,-5.97,0.51,-107.53,-2.07,-2.01,0.79,-0.01,-0.11,1.03,1000
17:16:19.490,-6.03,0.53,-107.52,-1.28,-2.99,0.79,-0.02,-0.11,1.04,1000
17:16:19.500,-6.1,0.54,-107.51,-0.06,-2.93,0.61,-0.01,-0.12,1.04,1000
17:16:19.512,-6.18,0.53,-107.51,1.46,-1.89,0.06,-0.01,-0.12,1.04,1000
17:16:19.532,-6.23,0.5,-107.51,2.87,-0.49,-0.18,-0.0,-0.12,1.04,1000
17:16:19.533,-6.25,0.48,-107.52,4.21,1.04,-0.79,-0.0,-0.11,1.04,1000
17:16:19.544,-6.22,0.44,-107.53,5.06,1.89,-1.16,-0.0,-0.11,1.03,1000
17:16:19.555,-6.16,0.41,-107.54,5.49,1.89,-1.34,0.0,-0.1,1.03,1000
17:16:19.566,-6.07,0.35,-107.56,5.12,1.89,-1.46,-0.0,-0.1,1.03,1000
17:16:19.578,-5.96,0.34,-107.58,4.45,1.83,-1.34,-0.01,-0.1,1.03,1000
17:16:19.592,-5.86,0.35,-107.59,3.41,1.83,-1.1,-0.01,-0.1,1.02,1000
17:16:19.599,-5.78,0.38,-107.6,2.38,1.77,-0.49,-0.02,-0.1,1.02,1000
17:16:19.612,-5.71,0.46,-107.6,1.34,1.89,0.0,-0.02,-0.1,1.02,1000
17:16:19.622,-5.68,0.52,-107.6,0.3,2.26,0.55,-0.01,-0.1,1.02,1000
17:16:19.634,-5.67,0.58,-107.59,-0.43,2.62,0.91,-0.01,-0.1,1.02,1000
17:16:19.643,-5.68,0.63,-107.58,-1.4,2.68,1.04,-0.02,-0.1,1.01,1000
17:16:19.654,-5.72,0.7,-107.56,-1.89,2.38,1.16,-0.02,-0.1,1.01,1000
17:16:19.665,-5.77,0.75,-107.55,-2.44,1.59,1.28,-0.02,-0.1,1.01,1000
17:16:19.676,-5.82,0.79,-107.54,-2.87,1.4,0.91,-0.01,-0.1,1.01,1000
17:16:19.690,-5.87,0.81,-107.53,-3.23,1.28,0.55,-0.01,-0.1,1.01,1000
17:16:19.698,-5.94,0.82,-107.53,-3.17,1.1,0.24,-0.01,-0.11,1.0,1000
17:16:19.710,-6.03,0.81,-107.53,-2.62,0.55,-0.06,-0.01,-0.11,1.0,1000
17:16:19.720,-6.16,0.8,-107.53,-2.38,-0.55,-0.24,-0.02,-0.12,1.0,1000
17:16:19.734,-6.3,0.81,-107.53,-2.07,-1.89,-0.18,-0.02,-0.12,0.99,1000
17:16:19.742,-6.4,0.79,-107.53,-1.95,-2.93,-0.12,-0.01,-0.11,1.0,1000
17:16:19.753,-6.45,0.69,-107.53,-2.56,-3.96,-0.18,-0.01,-0.11,1.01,1000
17:16:19.765,-6.45,0.61,-107.53,-2.93,-4.15,-0.18,-0.01,-0.11,1.01,1000
17:16:19.777,-6.47,0.56,-107.53,-3.17,-3.6,-0.24,-0.01,-0.12,1.02,1000
17:16:19.786,-6.53,0.54,-107.53,-3.17,-2.74,-0.49,-0.01,-0.12,1.02,1000
17:16:19.797,-6.6,0.54,-107.54,-3.35,-1.77,-0.67,-0.01,-0.12,1.02,1000
17:16:19.808,-6.7,0.53,-107.55,-3.41,-0.73,-0.18,-0.01,-0.12,1.03,1000
17:16:19.819,-6.74,0.55,-107.55,-3.41,-0.61,0.12,-0.02,-0.12,1.02,1000
17:16:19.830,-6.73,0.6,-107.54,-3.17,-0.91,1.1,-0.02,-0.11,1.02,1000
17:16:19.841,-6.7,0.66,-107.52,-3.17,-1.77,2.01,-0.02,-0.11,1.02,1000
17:16:19.853,-6.66,0.7,-107.5,-2.93,-2.56,2.93,-0.01,-0.11,1.02,1000
17:16:19.863,-6.63,0.69,-107.46,-2.44,-3.17,3.17,-0.01,-0.12,1.03,1000
17:16:19.874,-6.63,0.65,-107.43,-1.89,-3.48,3.11,-0.01,-0.12,1.03,1000
17:16:19.885,-6.65,0.6,-107.4,-1.28,-3.11,2.26,-0.01,-0.12,1.04,1000
17:16:19.897,-6.68,0.56,-107.38,-0.98,-2.87,1.77,-0.01,-0.12,1.04,1000
17:16:19.908,-6.71,0.51,-107.36,-0.73,-1.34,0.73,-0.01,-0.12,1.05,1000
17:16:19.922,-6.7,0.5,-107.36,-0.49,0.24,0.43,-0.01,-0.12,1.05,1000
17:16:19.930,-6.67,0.51,-107.35,-0.43,1.4,0.37,-0.01,-0.12,1.04,1000
17:16:19.941,-6.62,0.53,-107.35,-0.55,2.56,0.67,-0.01,-0.11,1.05,1000
17:16:19.952,-6.57,0.54,-107.34,-0.61,2.74,1.04,-0.0,-0.11,1.04,1000
17:16:19.962,-6.5,0.52,-107.33,-1.1,2.07,1.65,-0.0,-0.1,1.04,1000
17:16:19.973,-6.4,0.47,-107.31,-1.77,1.34,2.07,-0.0,-0.1,1.03,1000
17:16:19.984,-6.28,0.42,-107.28,-1.83,0.85,2.32,-0.01,-0.11,1.04,1000
17:16:19.995,-6.18,0.41,-107.26,-1.95,1.34,2.62,-0.01,-0.1,1.04,1000
17:16:20.006,-6.1,0.44,-107.23,-1.95,3.11,2.2,-0.01,-0.1,1.04,1000
17:16:20.017,-6.06,0.5,-107.2,-2.01,5.43,2.07,-0.01,-0.11,1.04,1000
17:16:20.029,-6.05,0.6,-107.18,-1.95,7.62,1.83,-0.02,-0.11,1.04,1000
17:16:20.046,-6.04,0.75,-107.16,-1.77,9.33,1.83,-0.02,-0.11,1.03,1000
17:16:20.050,-6.04,0.92,-107.14,-1.4,9.88,1.71,-0.02,-0.11,1.03,1000
17:16:20.061,-6.07,1.07,-107.12,-0.67,8.9,1.71,-0.02,-0.11,1.02,1000
17:16:20.072,-6.11,1.18,-107.11,-0.12,7.32,1.52,-0.02,-0.12,1.02,1000
17:16:20.084,-6.2,1.23,-107.09,0.67,5.3,1.28,-0.02,-0.12,1.01,1000
17:16:20.094,-6.28,1.26,-107.08,1.16,3.6,1.04,-0.02,-0.12,1.01,1000
17:16:20.107,-6.34,1.29,-107.07,1.22,2.5,0.85,-0.03,-0.12,1.01,1000
17:16:20.116,-6.36,1.34,-107.06,1.22,1.83,0.67,-0.03,-0.11,1.02,1000
17:16:20.127,-6.36,1.41,-107.05,0.85,0.98,0.49,-0.03,-0.11,1.02,1000
17:16:20.146,-6.35,1.46,-107.05,0.43,0.43,0.55,-0.02,-0.12,1.01,1000
17:16:20.149,-6.35,1.49,-107.04,0.0,0.24,0.91,-0.03,-0.11,1.01,1000
17:16:20.160,-6.36,1.51,-107.03,0.12,-0.43,1.34,-0.02,-0.11,1.01,1000
17:16:20.171,-6.34,1.46,-107.01,1.04,-1.16,2.01,-0.02,-0.11,1.0,1000
17:16:20.182,-6.28,1.36,-106.98,1.95,-1.65,2.68,-0.01,-0.11,1.01,1000
17:16:20.193,-6.22,1.23,-106.95,2.5,-1.52,3.05,-0.01,-0.1,1.01,1000
17:16:20.206,-6.14,1.14,-106.92,2.62,-1.89,3.11,-0.02,-0.1,1.01,1000
17:16:20.216,-6.06,1.11,-106.89,1.89,-2.26,2.62,-0.03,-0.1,1.01,1000
17:16:20.229,-6.0,1.15,-106.86,0.91,-2.56,2.07,-0.03,-0.1,1.02,1000
17:16:20.251,-5.94,1.22,-106.84,-0.43,-2.87,0.98,-0.03,-0.1,1.02,1000
17:16:20.251,-5.91,1.27,-106.84,-1.71,-3.17,0.12,-0.02,-0.1,1.01,1000
17:16:20.259,-5.89,1.27,-106.84,-2.87,-4.21,-0.73,-0.02,-0.1,1.01,1000
17:16:20.270,-5.86,1.22,-106.85,-2.99,-5.67,-1.83,-0.02,-0.1,1.01,1000
17:16:20.281,-5.83,1.13,-106.88,-2.5,-6.89,-2.13,-0.01,-0.1,1.01,1000
17:16:20.292,-5.82,1.02,-106.9,-2.07,-6.59,-2.74,-0.01,-0.1,1.02,1000
17:16:20.303,-5.79,0.92,-106.94,-2.01,-5.43,-3.29,-0.02,-0.1,1.02,1000
17:16:20.314,-5.74,0.89,-106.98,-2.5,-3.48,-3.72,-0.02,-0.1,1.03,1000
17:16:20.326,-5.72,0.94,-107.02,-3.05,-1.89,-4.33,-0.03,-0.1,1.04,1000
17:16:20.336,-5.72,1.04,-107.07,-3.48,-1.1,-4.21,-0.03,-0.1,1.03,1000
17:16:20.353,-5.71,1.1,-107.12,-3.78,-0.73,-4.15,-0.01,-0.1,1.03,1000
17:16:20.358,-5.68,1.03,-107.16,-4.33,-0.37,-4.21,0.0,-0.1,1.02,1000
17:16:20.370,-5.71,0.87,-107.21,-4.76,0.06,-4.15,-0.0,-0.11,1.02,1000
17:16:20.380,-5.81,0.75,-107.26,-6.04,0.18,-4.39,-0.0,-0.12,1.03,1000
17:16:20.391,-5.99,0.65,-107.31,-7.26,0.85,-4.94,-0.01,-0.12,1.04,1000
17:16:20.404,-6.19,0.63,-107.36,-9.51,1.28,-4.88,-0.02,-0.12,1.04,1000
17:16:20.416,-6.39,0.65,-107.41,-11.16,2.68,-4.76,-0.0,-0.14,1.03,1000
17:16:20.425,-6.7,0.62,-107.46,-11.04,3.48,-3.72,-0.0,-0.16,1.02,1000
17:16:20.435,-7.05,0.57,-107.49,-10.43,4.39,-1.28,-0.0,-0.13,1.02,1000
17:16:20.454,-7.35,0.49,-107.49,-9.51,5.55,1.71,0.0,-0.14,1.02,1000
17:16:20.457,-7.58,0.37,-107.46,-8.48,6.71,4.7,0.01,-0.14,1.01,1000
17:16:20.468,-7.8,0.21,-107.39,-6.65,9.15,7.5,0.03,-0.15,1.02,1000
17:16:20.479,-7.93,0.05,-107.31,-5.24,11.34,9.45,0.02,-0.15,1.01,1000
17:16:20.490,-7.98,-0.01,-107.18,-3.48,14.15,11.34,-0.0,-0.13,1.02,1000
17:16:20.501,-7.93,0.1,-107.05,-2.56,15.55,12.01,-0.02,-0.14,1.03,1000
17:16:20.514,-7.85,0.42,-106.92,-2.5,16.34,11.83,-0.03,-0.14,1.04,1000
17:16:20.523,-7.82,0.73,-106.8,-3.41,16.4,10.18,-0.03,-0.14,1.04,1000
17:16:20.536,-7.89,1.05,-106.69,-5.43,15.55,6.95,-0.05,-0.15,1.01,1000
17:16:20.547,-8.05,1.43,-106.63,-6.95,14.33,4.27,-0.08,-0.16,0.99,1000
17:16:20.559,-8.36,2.15,-106.6,-7.38,8.41,1.77,-0.11,-0.16,0.98,1000
17:16:20.568,-8.61,2.89,-106.59,-5.73,-1.71,-0.06,-0.11,-0.15,0.99,1000
17:16:20.578,-8.72,3.45,-106.6,-2.5,-13.6,-1.1,-0.09,-0.14,1.0,1000
17:16:20.591,-8.67,3.63,-106.61,-0.24,-20.55,-2.44,-0.05,-0.13,0.98,1000
17:16:20.600,-8.49,3.46,-106.65,0.61,-21.28,-3.48,-0.03,-0.12,0.99,1000
17:16:20.611,-8.19,3.08,-106.69,-0.12,-17.56,-4.76,-0.03,-0.11,1.01,1000
17:16:20.622,-7.85,2.75,-106.75,-0.91,-12.87,-5.61,-0.05,-0.12,1.02,1000
17:16:20.633,-7.64,2.64,-106.81,-2.32,-8.66,-6.16,-0.06,-0.13,1.03,1000
17:16:20.656,-7.56,2.69,-106.88,-3.54,-6.04,-6.89,-0.07,-0.14,1.03,1000
17:16:20.661,-7.58,2.8,-106.96,-4.76,-4.88,-7.38,-0.05,-0.14,1.03,1000
17:16:20.666,-7.64,2.77,-107.04,-6.22,-4.02,-8.17,-0.02,-0.14,1.01,1000
17:16:20.678,-7.71,2.55,-107.13,-7.5,-4.33,-7.8,-0.0,-0.13,1.01,1000
17:16:20.688,-7.74,2.19,-107.22,-7.56,-6.89,-6.77,0.0,-0.13,1.01,1000
17:16:20.699,-7.73,1.7,-107.28,-5.91,-10.3,-5.06,-0.01,-0.13,1.01,1000
17:16:20.712,-7.73,1.31,-107.33,-2.26,-12.93,-3.54,0.0,-0.15,1.0,1000
17:16:20.721,-7.82,0.96,-107.36,2.44,-12.38,-1.95,0.01,-0.17,1.02,1000
17:16:20.735,-7.98,0.58,-107.38,6.59,-9.27,-0.85,0.01,-0.17,1.04,1000
17:16:20.744,-8.08,0.27,-107.38,10.18,-3.9,0.0,0.01,-0.16,1.05,1000
17:16:20.757,-8.06,0.12,-107.38,11.34,0.85,0.49,-0.01,-0.15,1.06,1000
17:16:20.765,-7.95,0.13,-107.38,10.79,3.84,0.73,-0.02,-0.14,1.06,1000
17:16:20.776,-7.83,0.25,-107.37,9.02,4.21,0.61,-0.02,-0.14,1.05,1000
17:16:20.787,-7.74,0.43,-107.36,6.46,3.23,0.37,-0.02,-0.14,1.04,1000
17:16:20.798,-7.66,0.59,-107.36,4.21,1.16,0.24,-0.02,-0.13,1.03,1000
17:16:20.809,-7.59,0.72,-107.36,2.07,-1.1,0.3,-0.02,-0.13,1.02,1000
17:16:20.823,-7.5,0.83,-107.36,0.43,-2.99,0.91,-0.02,-0.12,1.01,1000
17:16:20.831,-7.42,0.88,-107.35,-1.04,-4.02,0.98,-0.02,-0.13,1.01,1000
17:16:20.844,-7.34,0.94,-107.34,-2.32,-4.02,1.04,-0.03,-0.12,1.02,1000
17:16:20.859,-7.3,0.99,-107.33,-3.96,-3.66,0.61,-0.03,-0.12,1.02,1000
17:16:20.864,-7.25,1.04,-107.32,-4.94,-3.11,-0.06,-0.03,-0.12,1.02,1000
17:16:20.875,-7.19,1.13,-107.33,-6.4,-2.38,-0.85,-0.03,-0.12,1.03,1000
17:16:20.886,-7.17,1.18,-107.34,-7.62,-2.01,-2.13,-0.02,-0.12,1.02,1000
17:16:20.898,-7.17,1.18,-107.37,-8.48,-2.26,-3.41,-0.02,-0.13,1.02,1000
17:16:20.909,-7.23,1.13,-107.41,-8.6,-3.05,-4.51,-0.01,-0.13,1.02,1000
17:16:20.923,-7.33,1.03,-107.47,-7.93,-4.39,-4.94,-0.01,-0.14,1.02,1000
17:16:20.930,-7.45,0.91,-107.52,-6.77,-5.06,-5.12,-0.01,-0.15,1.01,1000
17:16:20.946,-7.63,0.77,-107.58,-5.06,-5.91,-5.12,0.0,-0.15,1.02,1000
17:16:20.956,-7.8,0.59,-107.64,-2.87,-5.73,-4.82,0.0,-0.15,1.02,1000
17:16:20.967,-7.91,0.44,-107.68,-1.22,-4.7,-4.27,-0.0,-0.15,1.03,1000
17:16:20.974,-8.0,0.31,-107.73,0.18,-2.56,-3.96,-0.0,-0.15,1.03,1000
17:16:20.985,-8.05,0.24,-107.77,0.91,-0.18,-3.17,0.0,-0.15,1.03,1000
17:16:20.997,-8.11,0.17,-107.8,0.79,1.1,-2.5,0.0,-0.15,1.02,1000
17:16:21.007,-8.15,0.09,-107.83,-0.12,1.52,-1.34,0.01,-0.15,1.02,1000
17:16:21.019,-8.17,0.03,-107.84,-1.95,1.34,-0.3,0.0,-0.14,1.01,1000
17:16:21.029,-8.2,0.02,-107.84,-4.09,0.67,0.73,-0.01,-0.15,1.01,1000
17:16:21.040,-8.26,0.06,-107.82,-5.91,-0.3,1.83,-0.0,-0.15,1.0,1000
17:16:21.052,-8.34,0.07,-107.8,-7.13,-2.44,2.56,0.01,-0.15,1.0,1000
17:16:21.064,-8.43,0.01,-107.77,-7.32,-4.39,2.62,-0.0,-0.15,1.01,1000
17:16:21.073,-8.52,-0.01,-107.74,-6.71,-4.82,2.32,-0.01,-0.16,1.01,1000
17:16:21.084,-8.62,0.02,-107.71,-5.61,-4.7,1.95,-0.01,-0.16,1.02,1000
17:16:21.095,-8.73,0.08,-107.7,-4.15,-3.72,1.52,-0.0,-0.16,1.02,1000
17:16:21.106,-8.8,0.1,-107.68,-2.32,-2.87,0.67,-0.0,-0.16,1.02,1000
17:16:21.117,-8.83,0.11,-107.68,-0.67,-2.01,0.06,-0.0,-0.16,1.02,1000
17:16:21.128,-8.82,0.12,-107.68,1.1,-1.1,-0.43,-0.0,-0.15,1.02,1000
17:16:21.139,-8.78,0.11,-107.69,2.07,-0.73,-0.85,0.0,-0.15,1.02,1000
17:16:21.151,-8.73,0.07,-107.7,2.74,-0.73,-1.04,-0.0,-0.15,1.02,1000
17:16:21.161,-8.65,0.05,-107.71,2.99,-0.91,-0.61,-0.0,-0.15,1.02,1000
17:16:21.172,-8.55,0.03,-107.71,2.99,-1.59,-0.49,0.01,-0.15,1.02,1000
17:16:21.183,-8.45,-0.02,-107.72,2.68,-2.2,0.0,0.01,-0.14,1.02,1000
17:16:21.194,-8.35,-0.09,-107.72,2.07,-2.38,0.12,0.0,-0.15,1.02,1000
17:16:21.205,-8.28,-0.12,-107.72,1.4,-1.77,0.0,0.0,-0.15,1.02,1000
17:16:21.216,-8.24,-0.15,-107.72,1.04,-1.28,-0.12,0.01,-0.15,1.03,1000
17:16:21.230,-8.19,-0.19,-107.72,0.37,-0.37,-0.12,0.0,-0.15,1.03,1000
17:16:21.240,-8.14,-0.2,-107.72,-0.49,0.37,-0.18,0.0,-0.14,1.03,1000
17:16:21.253,-8.09,-0.19,-107.72,-1.34,0.91,0.0,0.0,-0.14,1.03,1000
17:16:21.269,-8.05,-0.18,-107.72,-1.71,0.85,0.12,-0.0,-0.14,1.02,1000
17:16:21.272,-8.04,-0.14,-107.72,-1.95,0.49,0.3,-0.0,-0.14,1.02,1000
17:16:21.282,-8.03,-0.07,-107.71,-1.83,0.24,0.49,-0.0,-0.15,1.01,1000
17:16:21.293,-8.04,-0.02,-107.71,-1.83,-0.37,0.55,-0.0,-0.14,1.02,1000
17:16:21.304,-8.05,0.02,-107.7,-1.95,-0.61,0.67,-0.0,-0.14,1.02,1000
17:16:21.315,-8.06,0.04,-107.69,-1.95,-0.73,0.67,-0.0,-0.15,1.02,1000
17:16:21.326,-8.08,0.03,-107.69,-2.13,-0.55,0.24,0.0,-0.15,1.02,1000
17:16:21.337,-8.12,-0.02,-107.69,-2.56,-0.73,-0.3,0.0,-0.15,1.02,1000
17:16:21.349,-8.18,-0.07,-107.7,-2.44,-0.91,-1.1,0.0,-0.15,1.02,1000
17:16:21.361,-8.24,-0.09,-107.71,-2.56,-1.04,-1.46,0.0,-0.15,1.02,1000
17:16:21.371,-8.3,-0.11,-107.73,-1.95,-1.46,-1.59,0.0,-0.16,1.02,1000
17:16:21.381,-8.4,-0.11,-107.74,-0.79,-1.34,-1.77,-0.0,-0.16,1.02,1000
17:16:21.392,-8.5,-0.1,-107.76,0.43,-0.85,-1.34,0.0,-0.16,1.02,1000
17:16:21.406,-8.59,-0.11,-107.78,1.71,-0.55,-0.98,0.01,-0.16,1.02,1000
17:16:21.414,-8.63,-0.15,-107.79,2.74,-0.12,-0.61,0.01,-0.16,1.02,1000
17:16:21.434,-8.65,-0.21,-107.79,3.48,-0.06,-0.43,0.01,-0.16,1.02,1000
17:16:21.437,-8.64,-0.26,-107.79,3.54,-0.55,-0.12,0.01,-0.15,1.02,1000
17:16:21.447,-8.62,-0.29,-107.8,3.54,-0.91,0.0,0.0,-0.16,1.02,1000
17:16:21.458,-8.6,-0.29,-107.8,2.93,-0.85,-0.3,0.0,-0.15,1.02,1000
17:16:21.469,-8.58,-0.28,-107.8,1.83,-0.61,-0.49,0.0,-0.15,1.02,1000
17:16:21.480,-8.56,-0.26,-107.8,0.85,-0.43,-0.61,0.0,-0.15,1.02,1000
17:16:21.491,-8.52,-0.23,-107.81,-0.18,0.12,-0.3,0.0,-0.15,1.02,1000
17:16:21.504,-8.47,-0.21,-107.81,-0.85,0.49,0.18,0.0,-0.14,1.02,1000
17:16:21.513,-8.4,-0.17,-107.81,-1.4,0.49,0.49,-0.0,-0.14,1.02,1000
17:16:21.524,-8.31,-0.11,-107.8,-1.46,0.24,1.4,-0.0,-0.14,1.02,1000
17:16:21.537,-8.26,-0.07,-107.78,-1.77,-0.06,1.4,0.0,-0.14,1.01,1000
17:16:21.547,-8.22,-0.05,-107.77,-1.71,-0.37,1.59,0.0,-0.15,1.01,1000
17:16:21.560,-8.2,-0.04,-107.75,-1.83,-0.91,1.4,0.0,-0.14,1.01,1000
17:16:21.570,-8.2,-0.04,-107.74,-1.89,-1.22,1.16,-0.0,-0.14,1.01,1000
17:16:21.580,-8.19,-0.04,-107.73,-1.71,-1.83,0.55,-0.01,-0.15,1.02,1000
17:16:21.590,-8.2,0.01,-107.72,-1.46,-2.26,-0.06,-0.01,-0.15,1.02,1000
17:16:21.601,-8.24,0.08,-107.73,-0.91,-2.32,-0.73,-0.01,-0.15,1.02,1000
17:16:21.612,-8.32,0.12,-107.74,0.06,-2.5,-1.22,-0.0,-0.16,1.02,1000
17:16:21.623,-8.4,0.11,-107.75,0.91,-2.2,-1.34,0.0,-0.16,1.02,1000
17:16:21.634,-8.46,0.06,-107.77,2.26,-2.01,-1.1,0.01,-0.15,1.02,1000
17:16:21.645,-8.48,-0.04,-107.78,2.93,-2.26,-0.61,0.01,-0.15,1.02,1000
17:16:21.656,-8.47,-0.14,-107.78,3.72,-2.44,-0.24,0.0,-0.15,1.02,1000
17:16:21.667,-8.43,-0.2,-107.78,4.21,-2.5,0.18,0.01,-0.15,1.02,1000
17:16:21.679,-8.34,-0.25,-107.78,4.57,-2.38,0.61,0.01,-0.14,1.02,1000
17:16:21.689,-8.23,-0.29,-107.77,4.63,-1.89,0.98,0.01,-0.14,1.03,1000
17:16:21.700,-8.09,-0.34,-107.76,4.27,-1.22,1.22,0.01,-0.14,1.02,1000
17:16:21.711,-7.95,-0.37,-107.74,3.29,-0.73,1.34,0.01,-0.13,1.02,1000
17:16:21.723,-7.82,-0.37,-107.73,2.38,-0.79,1.28,0.01,-0.13,1.02,1000
17:16:21.735,-7.71,-0.39,-107.72,1.04,-1.04,0.91,0.01,-0.14,1.02,1000
17:16:21.744,-7.66,-0.41,-107.71,0.0,-1.34,0.37,0.01,-0.14,1.02,1000
17:16:21.755,-7.61,-0.41,-107.71,-0.61,-1.28,-0.18,0.01,-0.13,1.02,1000
17:16:21.766,-7.58,-0.42,-107.71,-1.28,-0.61,-0.67,0.01,-0.13,1.02,1000
17:16:21.780,-7.57,-0.42,-107.72,-1.65,0.18,-0.98,0.01,-0.14,1.02,1000
17:16:21.788,-7.59,-0.4,-107.73,-2.07,0.98,-1.16,0.0,-0.14,1.02,1000
17:16:21.799,-7.65,-0.35,-107.74,-2.56,1.22,-1.34,0.0,-0.15,1.02,1000
17:16:21.810,-7.74,-0.3,-107.76,-2.8,1.34,-1.16,0.0,-0.14,1.01,1000
17:16:21.821,-7.82,-0.27,-107.77,-2.93,0.98,-0.79,0.01,-0.14,1.01,1000
17:16:21.848,-7.89,-0.28,-107.77,-3.23,0.73,-0.55,0.01,-0.15,1.01,1000
17:16:21.850,-7.97,-0.32,-107.78,-3.48,0.06,-0.3,0.01,-0.15,1.01,1000
17:16:21.859,-8.06,-0.33,-107.78,-3.78,-0.73,0.0,-0.0,-0.15,1.01,1000
17:16:21.868,-8.17,-0.31,-107.78,-3.72,-1.89,0.12,0.0,-0.15,1.01,1000
17:16:21.886,-8.3,-0.3,-107.78,-3.17,-2.56,0.06,0.0,-0.16,1.01,1000
17:16:21.889,-8.45,-0.28,-107.78,-2.26,-3.29,0.0,-0.0,-0.16,1.01,1000
17:16:21.898,-8.56,-0.24,-107.78,-1.46,-3.41,-0.24,-0.0,-0.16,1.01,1000
17:16:21.910,-8.65,-0.2,-107.78,-0.3,-2.99,-0.37,-0.0,-0.16,1.01,1000
17:16:21.920,-8.69,-0.16,-107.78,0.55,-2.5,-0.18,-0.0,-0.16,1.01,1000
17:16:21.931,-8.71,-0.14,-107.78,1.04,-2.07,-0.06,0.0,-0.15,1.01,1000
17:16:21.946,-8.67,-0.13,-107.77,1.16,-2.2,0.3,0.0,-0.15,1.01,1000
17:16:21.956,-8.6,-0.15,-107.77,1.04,-2.74,0.85,0.01,-0.15,1.01,1000
17:16:21.966,-8.52,-0.22,-107.76,0.85,-3.41,0.73,0.01,-0.15,1.02,1000
17:16:21.975,-8.46,-0.3,-107.75,-0.06,-4.45,0.37,0.01,-0.15,1.02,1000
17:16:21.989,-8.44,-0.41,-107.75,-0.67,-5.18,-0.18,0.01,-0.15,1.02,1000
17:16:21.997,-8.45,-0.48,-107.75,-1.34,-5.3,-0.79,0.01,-0.15,1.02,1000
17:16:22.008,-8.48,-0.51,-107.76,-1.83,-4.57,-1.22,0.01,-0.15,1.03,1000
17:16:22.021,-8.48,-0.52,-107.78,-2.01,-3.96,-1.83,0.01,-0.15,1.03,1000
17:16:22.030,-8.49,-0.54,-107.8,-1.95,-3.05,-2.13,0.02,-0.15,1.04,1000
17:16:22.043,-8.49,-0.59,-107.83,-1.46,-1.59,-2.26,0.02,-0.16,1.04,1000
17:16:22.052,-8.49,-0.63,-107.85,-0.49,0.24,-1.95,0.02,-0.16,1.05,1000
17:16:22.064,-8.48,-0.68,-107.87,0.67,1.95,-1.34,0.03,-0.15,1.04,1000
17:16:22.075,-8.45,-0.76,-107.88,1.65,3.66,-0.24,0.03,-0.15,1.04,1000
17:16:22.088,-8.41,-0.84,-107.88,2.26,4.33,0.49,0.02,-0.15,1.04,1000
17:16:22.096,-8.37,-0.88,-107.87,2.13,4.33,1.04,0.02,-0.15,1.03,1000
17:16:22.107,-8.32,-0.89,-107.86,1.4,3.35,1.59,0.01,-0.15,1.03,1000
17:16:22.118,-8.29,-0.86,-107.84,0.49,2.13,1.77,0.01,-0.15,1.02,1000
17:16:22.129,-8.25,-0.78,-107.82,-0.91,0.61,1.89,0.01,-0.14,1.02,1000
17:16:22.141,-8.22,-0.69,-107.79,-2.44,-0.43,2.01,0.0,-0.14,1.02,1000
17:16:22.151,-8.21,-0.62,-107.77,-3.66,-0.98,2.01,0.01,-0.14,1.02,1000
17:16:22.166,-8.19,-0.6,-107.75,-4.39,-0.98,1.83,0.01,-0.14,1.03,1000
17:16:22.174,-8.18,-0.61,-107.73,-4.63,-0.12,1.71,0.02,-0.15,1.02,1000
17:16:22.185,-8.2,-0.65,-107.71,-4.27,0.91,1.83,0.02,-0.15,1.02,1000
17:16:22.195,-8.26,-0.68,-107.69,-3.23,1.16,1.71,0.01,-0.15,1.01,1000
17:16:22.207,-8.31,-0.68,-107.68,-2.07,0.85,1.77,0.01,-0.15,1.01,1000
17:16:22.217,-8.35,-0.63,-107.66,-0.98,-0.18,1.89,0.01,-0.15,1.01,1000
17:16:22.228,-8.36,-0.58,-107.63,-0.06,-1.71,2.13,0.01,-0.15,1.01,1000
17:16:22.241,-8.35,-0.56,-107.61,0.73,-2.68,2.01,0.01,-0.15,1.01,1000
17:16:22.253,-8.31,-0.55,-107.59,0.79,-2.87,1.77,0.01,-0.14,1.0,1000
17:16:22.261,-8.24,-0.55,-107.57,0.91,-2.74,1.52,0.01,-0.14,1.01,1000
17:16:22.272,-8.14,-0.57,-107.56,0.91,-2.62,0.73,0.01,-0.14,1.0,1000
17:16:22.288,-8.05,-0.6,-107.55,0.67,-2.07,-0.12,0.01,-0.14,1.0,1000
17:16:22.297,-8.01,-0.62,-107.56,0.43,-2.13,-1.16,0.01,-0.15,1.01,1000
17:16:22.305,-8.03,-0.66,-107.58,0.06,-2.2,-2.56,0.01,-0.15,1.01,1000
17:16:22.316,-8.11,-0.71,-107.61,-0.73,-1.89,-3.54,0.01,-0.15,1.01,1000
17:16:22.327,-8.19,-0.74,-107.65,-1.22,-2.26,-4.15,0.01,-0.16,1.01,1000
17:16:22.338,-8.3,-0.75,-107.7,-1.59,-2.32,-3.84,0.01,-0.16,1.01,1000
17:16:22.350,-8.39,-0.73,-107.74,-1.52,-2.56,-3.35,0.01,-0.15,1.01,1000
17:16:22.360,-8.45,-0.74,-107.77,-1.22,-2.68,-1.95,0.02,-0.15,1.02,1000
17:16:22.373,-8.52,-0.78,-107.78,-0.24,-2.62,-0.67,0.02,-0.16,1.02,1000
17:16:22.382,-8.59,-0.83,-107.79,0.61,-2.2,0.43,0.02,-0.16,1.01,1000
17:16:22.395,-8.7,-0.86,-107.78,1.59,-1.65,1.16,0.02,-0.17,1.02,1000
17:16:22.404,-8.82,-0.86,-107.76,2.13,-1.59,1.46,0.01,-0.17,1.02,1000
17:16:22.418,-8.95,-0.85,-107.74,2.38,-1.34,1.65,0.01,-0.18,1.02,1000
17:16:22.426,-9.08,-0.8,-107.73,2.44,-1.46,0.61,-0.0,-0.19,1.02,1000
17:16:22.438,-9.32,-0.67,-107.73,2.62,-1.71,-0.24,-0.01,-0.21,1.03,1000
17:16:22.448,-9.68,-0.43,-107.74,3.35,-2.13,-1.28,-0.03,-0.22,1.05,1000
17:16:22.460,-10.02,-0.15,-107.75,4.63,-2.56,-1.95,-0.02,-0.23,1.06,1000
17:16:22.470,-10.38,0.07,-107.78,6.34,-2.74,-2.01,0.01,-0.22,1.07,1000
17:16:22.482,-10.63,0.09,-107.79,8.84,-1.4,-1.28,0.02,-0.21,1.07,1000
17:16:22.492,-10.67,-0.09,-107.8,11.16,2.07,0.67,0.05,-0.19,1.07,1000
17:16:22.504,-10.5,-0.44,-107.78,12.74,5.85,2.99,0.06,-0.16,1.07,1000
17:16:22.516,-10.11,-0.88,-107.73,14.82,9.45,6.4,0.07,-0.14,1.08,1000
17:16:22.525,-9.6,-1.22,-107.64,17.68,12.38,9.94,0.05,-0.14,1.08,1000
17:16:22.536,-9.02,-1.42,-107.52,22.87,14.82,12.26,0.04,-0.14,1.12,1000
17:16:22.547,-8.37,-1.5,-107.38,31.16,18.35,12.93,0.04,-0.15,1.14,1000
17:16:22.562,-7.84,-1.44,-107.24,41.4,25.49,11.52,0.04,-0.16,1.16,1000
17:16:22.569,-7.37,-1.29,-107.13,53.05,36.28,8.41,0.04,-0.17,1.17,1000
17:16:22.584,-6.91,-1.06,-107.06,63.23,48.54,4.7,0.04,-0.15,1.17,1000
17:16:22.600,-6.32,-0.73,-107.02,72.26,60.85,0.98,0.03,-0.11,1.14,1000
17:16:22.604,-5.57,-0.36,-107.03,79.45,69.94,-1.95,0.03,-0.08,1.13,1000
17:16:22.613,-4.58,0.09,-107.06,85.61,76.1,-3.54,0.01,-0.04,1.11,1000
17:16:22.624,-3.33,0.65,-107.1,92.68,79.15,-3.66,-0.01,-0.02,1.1,1000
17:16:22.635,-2.05,1.31,-107.14,100.49,79.57,-3.11,-0.03,-0.01,1.09,1000
17:16:22.646,-0.82,2.02,-107.17,111.59,79.27,-2.93,-0.06,-0.01,1.1,1000
17:16:22.657,0.34,2.81,-107.2,123.11,80.43,-3.23,-0.08,-0.01,1.09,1000
17:16:22.668,1.39,3.72,-107.24,132.93,83.29,-3.96,-0.1,-0.0,1.09,1000
17:16:22.679,2.36,4.77,-107.29,141.83,86.89,-4.82,-0.14,0.02,1.08,1000
17:16:22.690,3.38,5.95,-107.35,148.41,88.6,-5.49,-0.15,0.05,1.06,1000
17:16:22.707,4.53,6.93,-107.4,152.99,88.9,-5.79,-0.14,0.11,1.05,1000
17:16:22.712,6.17,7.9,-107.47,157.01,88.29,-5.98,-0.15,0.16,1.03,1000
17:16:22.724,7.93,8.7,-107.54,158.41,87.68,-5.73,-0.16,0.19,1.01,1000
17:16:22.735,9.76,9.51,-107.6,160.43,85.49,-5.3,-0.19,0.22,1.0,1000
17:16:22.748,11.59,10.36,-107.65,163.29,82.07,-4.63,-0.22,0.23,0.98,1000
17:16:22.756,13.39,11.24,-107.71,169.15,77.68,-4.94,-0.2,0.28,0.99,1000
17:16:22.767,15.29,11.83,-107.77,179.76,72.56,-6.95,-0.2,0.31,0.99,1000
17:16:22.778,16.98,12.3,-107.85,193.54,70.3,-10.24,-0.24,0.3,0.98,1000
17:16:22.790,18.89,13.11,-108.0,211.28,71.34,-15.37,-0.28,0.29,0.93,1000
17:16:22.805,20.41,14.16,-108.19,226.1,74.88,-20.55,-0.3,0.3,0.9,1000
17:16:22.812,22.05,15.46,-108.44,237.56,79.33,-25.0,-0.32,0.36,0.83,1000
17:16:22.822,23.99,16.84,-108.73,241.65,81.77,-27.5,-0.33,0.43,0.81,1000
17:16:22.833,26.38,18.11,-109.04,238.23,81.52,-27.99,-0.34,0.5,0.75,1000
17:16:22.845,29.11,19.38,-109.34,226.1,79.39,-26.16,-0.36,0.55,0.72,1000
17:16:22.855,32.02,20.54,-109.61,209.76,75.67,-22.5,-0.36,0.6,0.68,1000
17:16:22.869,34.8,21.5,-109.83,187.74,71.46,-17.38,-0.36,0.63,0.65,1000
17:16:22.877,37.42,22.24,-110.0,164.63,68.35,-12.8,-0.36,0.67,0.61,1000
17:16:22.892,39.8,22.77,-110.12,138.9,63.35,-9.02,-0.35,0.71,0.58,1000
17:16:22.908,41.74,23.12,-110.2,117.38,58.96,-7.74,-0.39,0.73,0.57,1000
17:16:22.913,43.51,23.6,-110.3,94.15,52.8,-8.41,-0.41,0.7,0.55,1000
17:16:22.921,44.58,24.1,-110.4,74.63,48.23,-11.34,-0.43,0.68,0.52,1000
17:16:22.932,45.4,25.0,-110.56,54.82,43.54,-15.98,-0.44,0.67,0.52,1000
17:16:22.943,45.69,25.8,-110.76,40.85,37.38,-20.98,-0.45,0.65,0.53,1000
17:16:22.954,45.51,26.61,-111.02,33.9,31.16,-25.79,-0.46,0.65,0.54,1000
17:16:22.965,45.27,27.27,-111.32,31.04,28.35,-29.09,-0.46,0.64,0.51,1000
17:16:22.978,45.11,27.86,-111.65,29.09,27.01,-30.98,-0.45,0.64,0.49,1000
17:16:22.987,45.08,28.37,-111.99,27.5,25.73,-31.65,-0.47,0.66,0.49,1000
17:16:22.999,45.09,28.9,-112.34,25.79,22.5,-30.49,-0.48,0.67,0.47,1000
17:16:23.010,45.17,29.35,-112.66,22.26,18.23,-28.48,-0.5,0.67,0.46,1000
17:16:23.020,45.23,29.81,-112.96,17.38,14.94,-25.49,-0.5,0.68,0.46,1000
17:16:23.031,45.22,30.29,-113.23,11.1,11.77,-22.07,-0.5,0.68,0.46,1000
17:16:23.042,45.14,30.76,-113.46,3.35,10.0,-18.84,-0.52,0.67,0.45,1000
17:16:23.054,44.96,31.17,-113.65,-3.96,8.54,-15.85,-0.5,0.68,0.47,1000
17:16:23.064,44.78,31.3,-113.81,-5.61,5.43,-14.27,-0.49,0.67,0.51,1000
17:16:23.075,44.53,31.3,-113.96,-0.61,1.65,-14.51,-0.5,0.64,0.51,1000
17:16:23.086,44.09,31.35,-114.14,13.72,-1.52,-17.13,-0.51,0.6,0.51,1000
17:16:23.097,43.46,31.53,-114.33,28.17,-3.41,-20.55,-0.52,0.58,0.5,1000
17:16:23.116,42.67,32.03,-114.59,43.84,-2.07,-22.68,-0.54,0.59,0.5,1000
17:16:23.119,42.35,32.52,-114.84,55.37,2.5,-22.2,-0.54,0.61,0.51,1000
17:16:23.130,42.14,33.0,-115.07,60.55,6.59,-19.15,-0.53,0.64,0.51,1000
17:16:23.141,42.18,33.27,-115.25,59.45,8.05,-12.68,-0.55,0.66,0.51,1000
17:16:23.152,42.39,33.41,-115.35,52.99,7.5,-4.57,-0.54,0.7,0.49,1000
17:16:23.163,42.86,33.36,-115.35,39.94,6.28,5.37,-0.53,0.75,0.48,1000
17:16:23.174,43.51,33.09,-115.25,25.24,4.82,13.72,-0.52,0.78,0.48,1000
17:16:23.186,44.27,32.56,-115.06,10.79,1.1,19.57,-0.51,0.77,0.49,1000
17:16:23.199,44.74,32.07,-114.84,0.18,-3.41,20.73,-0.54,0.74,0.48,1000
17:16:23.222,44.89,31.83,-114.64,-6.59,-5.55,18.78,-0.56,0.72,0.48,1000
17:16:23.223,44.7,31.85,-114.43,-11.59,-6.46,14.76,-0.56,0.7,0.49,1000
17:16:23.229,44.35,32.0,-114.29,-15.67,-5.85,10.55,-0.55,0.71,0.49,1000
17:16:23.240,44.02,32.06,-114.2,-20.3,-4.57,7.01,-0.53,0.73,0.5,1000
17:16:23.251,43.87,31.95,-114.13,-25.49,-2.56,4.57,-0.52,0.74,0.49,1000
17:16:23.262,43.86,31.75,-114.09,-32.2,-1.77,3.54,-0.52,0.75,0.48,1000
17:16:23.273,43.95,31.51,-114.05,-40.0,-3.66,3.41,-0.52,0.75,0.47,1000
17:16:23.284,43.98,31.28,-114.01,-46.46,-8.05,4.39,-0.52,0.75,0.47,1000
17:16:23.295,44.11,31.06,-113.95,-52.5,-13.6,5.49,-0.52,0.73,0.46,1000
17:16:23.316,43.99,30.91,-113.89,-56.46,-17.93,6.65,-0.52,0.72,0.46,1000
17:16:23.317,43.76,30.77,-113.81,-60.61,-21.77,8.05,-0.52,0.71,0.47,1000
17:16:23.328,43.54,30.67,-113.71,-64.21,-23.9,8.84,-0.51,0.7,0.49,1000
17:16:23.339,43.23,30.5,-113.61,-67.5,-24.7,9.63,-0.49,0.7,0.51,1000
17:16:23.350,42.92,30.17,-113.51,-71.28,-24.94,9.51,-0.48,0.7,0.52,1000
17:16:23.361,42.57,29.8,-113.41,-74.45,-25.12,8.6,-0.48,0.68,0.53,1000
17:16:23.374,42.08,29.49,-113.32,-78.23,-25.91,7.62,-0.49,0.66,0.53,1000
17:16:23.383,41.49,29.32,-113.24,-82.8,-27.5,6.59,-0.5,0.64,0.53,1000
17:16:23.394,40.86,29.27,-113.17,-87.44,-29.02,6.04,-0.48,0.64,0.55,1000
17:16:23.405,40.09,29.07,-113.1,-93.72,-30.85,6.04,-0.46,0.64,0.58,1000
17:16:23.421,39.42,28.69,-113.03,-99.82,-30.55,6.52,-0.45,0.64,0.6,1000
17:16:23.427,38.64,28.23,-112.96,-107.62,-29.15,6.77,-0.44,0.63,0.62,1000
17:16:23.438,37.91,27.78,-112.89,-115.37,-27.87,7.26,-0.44,0.61,0.64,1000
17:16:23.450,37.0,27.33,-112.81,-125.3,-25.98,7.44,-0.44,0.6,0.65,1000
17:16:23.461,35.87,26.89,-112.72,-137.38,-24.82,7.38,-0.44,0.58,0.66,1000
17:16:23.471,34.7,26.57,-112.63,-148.84,-24.51,7.99,-0.44,0.56,0.67,1000
17:16:23.484,33.44,26.33,-112.54,-161.65,-25.12,8.72,-0.43,0.54,0.68,1000
17:16:23.493,32.06,26.12,-112.44,-174.76,-27.2,9.45,-0.42,0.52,0.69,1000
17:16:23.506,30.7,25.9,-112.34,-187.26,-30.98,10.06,-0.42,0.51,0.7,1000
17:16:23.518,29.26,25.63,-112.22,-200.18,-35.73,9.88,-0.41,0.48,0.7,1000
17:16:23.527,27.67,25.39,-112.12,-210.91,-41.28,8.72,-0.42,0.43,0.71,1000
17:16:23.537,25.95,25.28,-112.04,-219.02,-46.89,6.77,-0.43,0.38,0.71,1000
17:16:23.548,23.62,25.2,-111.98,-226.77,-54.33,3.72,-0.42,0.32,0.73,1000
17:16:23.559,21.33,25.14,-111.95,-232.2,-61.28,0.61,-0.39,0.3,0.74,1000
17:16:23.570,19.03,24.9,-111.97,-235.85,-67.87,-3.05,-0.37,0.26,0.76,1000
17:16:23.585,16.7,24.4,-112.02,-237.62,-73.17,-6.77,-0.36,0.22,0.78,1000
17:16:23.592,14.25,23.79,-112.11,-236.22,-77.5,-11.16,-0.37,0.16,0.83,1000
17:16:23.603,11.56,23.12,-112.25,-230.61,-79.88,-15.0,-0.36,0.1,0.85,1000
17:16:23.618,8.73,22.37,-112.44,-220.67,-80.98,-18.9,-0.34,0.04,0.88,1000
17:16:23.628,6.13,21.6,-112.64,-209.02,-81.28,-21.83,-0.33,-0.01,0.89,1000
17:16:23.636,2.99,20.58,-112.91,-192.62,-81.34,-24.27,-0.3,-0.05,0.91,1000
17:16:23.647,0.22,19.52,-113.19,-175.91,-82.2,-25.67,-0.29,-0.09,0.92,1000
17:16:23.659,-2.23,18.47,-113.47,-160.06,-83.48,-25.3,-0.28,-0.12,0.93,1000
17:16:23.669,-4.47,17.45,-113.74,-142.5,-85.85,-24.02,-0.29,-0.17,0.96,1000
17:16:23.682,-6.72,16.49,-113.99,-123.41,-88.35,-21.4,-0.28,-0.22,0.99,1000
17:16:23.691,-8.74,15.47,-114.22,-104.57,-89.7,-18.35,-0.24,-0.25,1.0,1000
17:16:23.702,-10.54,14.27,-114.4,-83.11,-90.0,-14.15,-0.21,-0.28,1.01,1000
17:16:23.713,-11.97,12.98,-114.53,-62.07,-89.33,-9.39,-0.17,-0.29,1.02,1000
17:16:23.727,-13.15,11.41,-114.61,-40.24,-87.26,-4.33,-0.11,-0.26,1.02,1000
17:16:23.735,-13.68,9.77,-114.63,-19.45,-81.77,1.04,-0.06,-0.22,1.03,1000
17:16:23.746,-13.55,7.92,-114.6,-1.77,-72.32,5.73,-0.02,-0.19,1.04,1000
17:16:23.757,-12.89,5.93,-114.51,12.32,-61.65,9.45,-0.0,-0.17,1.06,1000
17:16:23.768,-12.04,4.35,-114.4,21.1,-53.41,10.98,-0.04,-0.16,1.07,1000
17:16:23.779,-11.06,3.37,-114.27,25.85,-46.52,12.38,-0.1,-0.15,1.07,1000
17:16:23.791,-10.24,3.07,-114.14,26.28,-42.56,12.32,-0.14,-0.14,1.06,1000
17:16:23.801,-9.37,3.39,-114.0,23.9,-39.7,12.56,-0.15,-0.12,1.06,1000
17:16:23.813,-8.6,3.69,-113.87,19.39,-36.28,11.89,-0.11,-0.08,1.05,1000
17:16:23.823,-7.71,3.89,-113.74,13.41,-33.48,10.0,-0.07,-0.07,1.05,1000
17:16:23.835,-7.03,3.73,-113.66,6.22,-32.07,6.59,-0.04,-0.07,1.05,1000
17:16:23.846,-6.44,3.38,-113.6,-1.28,-32.07,2.32,-0.05,-0.08,1.06,1000
17:16:23.857,-5.89,2.99,-113.61,-9.76,-31.65,-3.72,-0.06,-0.08,1.05,1000
17:16:23.870,-5.74,2.74,-113.67,-16.4,-30.98,-8.54,-0.06,-0.1,1.06,1000
17:16:23.878,-5.74,2.56,-113.79,-24.45,-30.12,-13.23,-0.07,-0.12,1.05,1000
17:16:23.891,-5.99,2.48,-113.95,-32.8,-29.57,-16.34,-0.06,-0.13,1.04,1000
17:16:23.900,-6.42,2.38,-114.13,-40.37,-29.76,-17.38,-0.06,-0.14,1.03,1000
17:16:23.915,-6.98,2.23,-114.32,-47.13,-29.7,-16.34,-0.02,-0.14,1.02,1000
17:16:23.926,-7.55,1.86,-114.49,-53.84,-28.78,-13.9,0.01,-0.15,1.0,1000
17:16:23.934,-8.11,1.38,-114.62,-59.82,-27.74,-11.34,0.02,-0.16,1.0,1000
17:16:23.944,-8.84,0.7,-114.74,-67.5,-28.23,-8.23,0.02,-0.18,1.0,1000
17:16:23.955,-9.66,0.02,-114.82,-75.73,-30.3,-6.46,0.03,-0.2,1.0,1000
17:16:23.969,-10.7,-0.64,-114.88,-86.34,-32.93,-5.37,0.03,-0.23,1.0,1000
17:16:23.977,-11.9,-1.12,-114.94,-98.48,-34.94,-4.7,0.02,-0.27,1.0,1000
17:16:23.989,-13.35,-1.46,-114.99,-109.94,-35.37,-4.09,0.02,-0.29,1.01,1000
17:16:23.999,-14.78,-1.73,-115.03,-121.16,-35.0,-2.74,0.02,-0.32,1.0,1000
17:16:24.013,-16.52,-1.97,-115.05,-132.93,-31.34,-0.3,0.03,-0.35,0.99,1000
17:16:24.021,-18.05,-2.15,-115.04,-142.44,-27.5,3.11,0.03,-0.36,0.98,1000
17:16:24.035,-19.69,-2.26,-114.98,-150.67,-24.09,7.8,0.02,-0.38,0.97,1000
17:16:24.043,-21.41,-2.26,-114.87,-156.46,-22.87,13.23,0.03,-0.42,0.96,1000
17:16:24.054,-23.23,-2.3,-114.69,-159.63,-22.93,18.84,0.04,-0.46,0.94,1000
17:16:24.065,-25.18,-2.42,-114.47,-161.83,-22.8,23.35,0.04,-0.49,0.92,1000
17:16:24.078,-26.92,-2.58,-114.21,-162.5,-22.07,27.26,0.04,-0.51,0.9,1000
17:16:24.088,-28.93,-2.73,-113.87,-161.83,-21.28,30.85,0.05,-0.54,0.89,1000
17:16:24.098,-30.59,-2.86,-113.55,-160.85,-21.1,32.68,0.05,-0.56,0.88,1000
17:16:24.109,-32.44,-2.95,-113.15,-156.95,-20.79,33.72,0.04,-0.58,0.89,1000
17:16:24.120,-33.96,-2.95,-112.78,-150.43,-20.43,33.54,0.03,-0.61,0.89,1000
17:16:24.135,-35.33,-2.78,-112.42,-140.49,-18.23,31.83,0.02,-0.65,0.88,1000
17:16:24.143,-36.64,-2.62,-112.08,-127.56,-13.66,29.15,0.03,-0.66,0.86,1000
17:16:24.154,-37.82,-2.49,-111.77,-111.22,-8.96,25.37,0.04,-0.69,0.85,1000
17:16:24.164,-38.87,-2.42,-111.51,-92.74,-4.33,20.73,0.05,-0.7,0.82,1000
17:16:24.175,-39.69,-2.38,-111.32,-75.85,-1.4,16.46,0.05,-0.71,0.81,1000
17:16:24.186,-40.54,-2.4,-111.16,-56.71,-0.49,11.04,0.05,-0.72,0.78,1000
17:16:24.198,-41.23,-2.41,-111.06,-42.93,-1.46,6.59,0.03,-0.71,0.77,1000
17:16:24.209,-41.77,-2.34,-111.01,-33.05,-5.06,2.93,0.02,-0.71,0.77,1000
17:16:24.223,-42.17,-2.19,-110.99,-27.5,-10.55,0.55,0.0,-0.7,0.77,1000
17:16:24.230,-42.38,-1.91,-110.99,-23.78,-15.12,-0.67,-0.01,-0.68,0.76,1000
17:16:24.243,-42.48,-1.64,-110.99,-20.79,-18.29,-0.43,-0.0,-0.67,0.74,1000
17:16:24.252,-42.53,-1.42,-111.0,-19.15,-19.57,-0.06,0.01,-0.67,0.73,1000
17:16:24.263,-42.63,-1.33,-111.0,-18.05,-20.24,0.37,0.02,-0.66,0.73,1000
17:16:24.274,-42.68,-1.36,-110.99,-18.35,-20.55,0.3,0.03,-0.64,0.72,1000
17:16:24.285,-42.61,-1.54,-111.0,-20.3,-20.73,-0.98,0.05,-0.63,0.73,1000
17:16:24.296,-42.52,-1.85,-111.02,-23.78,-20.43,-3.72,0.07,-0.64,0.73,1000
17:16:24.307,-42.48,-2.3,-111.08,-28.11,-19.33,-7.74,0.08,-0.66,0.73,1000
17:16:24.318,-42.59,-2.76,-111.19,-33.54,-17.26,-13.05,0.07,-0.69,0.73,1000
17:16:24.329,-42.89,-3.1,-111.36,-37.99,-14.82,-17.5,0.06,-0.71,0.73,1000
17:16:24.346,-43.34,-3.29,-111.57,-41.34,-12.8,-20.67,0.06,-0.73,0.72,1000
17:16:24.351,-43.98,-3.43,-111.81,-43.54,-10.61,-22.44,0.07,-0.74,0.71,1000
17:16:24.362,-44.63,-3.56,-112.03,-44.76,-9.82,-22.38,0.09,-0.76,0.7,1000
17:16:24.373,-45.5,-3.86,-112.29,-46.28,-10.12,-20.24,0.1,-0.76,0.7,1000
17:16:24.384,-46.21,-4.25,-112.5,-47.13,-11.28,-16.59,0.12,-0.77,0.69,1000
17:16:24.399,-46.91,-4.81,-112.66,-48.54,-12.44,-12.07,0.16,-0.79,0.69,1000
17:16:24.406,-47.55,-5.46,-112.77,-50.67,-12.62,-7.38,0.18,-0.82,0.72,1000
17:16:24.417,-48.12,-6.16,-112.83,-52.13,-10.98,-2.38,0.17,-0.84,0.73,1000
17:16:24.428,-48.63,-6.75,-112.82,-51.77,-6.71,3.6,0.15,-0.86,0.72,1000
17:16:24.443,-49.15,-7.06,-112.75,-48.54,-1.22,9.39,0.14,-0.87,0.72,1000
17:16:24.450,-49.63,-7.11,-112.62,-43.23,5.06,15.3,0.13,-0.86,0.71,1000
17:16:24.461,-50.05,-6.96,-112.43,-35.43,11.04,20.61,0.11,-0.87,0.69,1000
17:16:24.472,-50.44,-6.68,-112.18,-26.34,15.61,24.27,0.11,-0.88,0.7,1000
17:16:24.483,-50.74,-6.35,-111.9,-17.99,20.18,27.38,0.1,-0.89,0.71,1000
17:16:24.495,-50.9,-5.86,-111.58,-10.18,25.43,30.06,0.06,-0.9,0.74,1000
17:16:24.505,-50.93,-5.05,-111.24,-0.49,29.94,31.89,0.04,-0.93,0.75,1000
17:16:24.516,-50.94,-4.17,-110.89,9.82,32.8,32.5,0.05,-0.95,0.73,1000
17:16:24.530,-50.95,-3.5,-110.53,21.34,32.87,32.87,0.06,-0.93,0.71,1000
17:16:24.541,-50.91,-3.0,-110.17,33.84,30.12,33.35,0.06,-0.9,0.69,1000
17:16:24.551,-50.79,-2.66,-109.8,45.3,25.0,34.21,0.07,-0.86,0.69,1000
17:16:24.563,-50.43,-2.59,-109.42,58.35,18.23,33.66,0.09,-0.84,0.71,1000
17:16:24.571,-49.74,-2.68,-109.07,72.26,12.68,29.7,0.09,-0.83,0.73,1000
17:16:24.588,-48.84,-2.87,-108.78,89.27,10.98,22.13,0.07,-0.84,0.76,1000
17:16:24.593,-47.76,-2.91,-108.58,107.44,13.29,11.65,0.04,-0.86,0.79,1000
17:16:24.604,-46.58,-2.68,-108.51,124.7,17.56,0.73,-0.0,-0.85,0.81,1000
17:16:24.615,-45.37,-2.05,-108.56,140.49,22.2,-10.49,-0.03,-0.83,0.81,1000
17:16:24.626,-44.11,-1.18,-108.71,151.83,23.84,-18.78,-0.04,-0.78,0.81,1000
17:16:24.640,-42.66,-0.38,-108.95,159.51,22.32,-23.72,-0.04,-0.71,0.8,1000
17:16:24.648,-41.27,0.23,-109.19,162.2,19.27,-25.24,-0.02,-0.66,0.79,1000
17:16:24.659,-39.68,0.68,-109.47,160.91,14.88,-24.51,-0.01,-0.62,0.79,1000
17:16:24.670,-37.87,0.88,-109.75,156.83,10.73,-21.65,-0.01,-0.58,0.82,1000
17:16:24.681,-36.17,0.94,-109.97,151.95,8.54,-18.41,0.01,-0.57,0.85,1000
17:16:24.694,-34.51,0.83,-110.16,145.43,8.41,-14.88,0.02,-0.56,0.87,1000
17:16:24.705,-33.09,0.65,-110.29,139.7,8.66,-11.4,0.02,-0.54,0.88,1000
17:16:24.714,-31.52,0.48,-110.4,133.29,9.94,-7.01,0.01,-0.52,0.89,1000
17:16:24.725,-30.17,0.39,-110.46,128.6,11.28,-2.56,0.0,-0.5,0.88,1000
17:16:24.736,-28.91,0.42,-110.47,124.51,13.29,1.04,-0.01,-0.48,0.88,1000
17:16:24.748,-27.74,0.54,-110.44,122.01,14.27,3.84,-0.02,-0.46,0.89,1000
17:16:24.758,-26.64,0.73,-110.39,121.83,13.48,5.37,-0.03,-0.45,0.89,1000
17:16:24.769,-25.72,0.96,-110.34,123.84,13.48,5.91,-0.02,-0.44,0.89,1000
17:16:24.781,-24.62,1.17,-110.26,126.59,15.18,5.91,-0.01,-0.41,0.88,1000
17:16:24.791,-23.56,1.26,-110.2,127.74,19.76,5.79,0.0,-0.38,0.89,1000
17:16:24.802,-22.41,1.28,-110.14,125.73,26.16,5.43,-0.01,-0.34,0.9,1000
17:16:24.814,-21.14,1.38,-110.08,120.85,30.98,5.85,-0.02,-0.32,0.92,1000
17:16:24.824,-19.82,1.65,-110.01,110.98,32.93,6.83,-0.03,-0.3,0.94,1000
17:16:24.837,-18.53,1.97,-109.93,97.8,30.98,8.29,-0.04,-0.28,0.95,1000
17:16:24.848,-17.4,2.35,-109.84,85.67,28.6,10.67,-0.09,-0.21,0.93,1000
17:16:24.857,-16.12,2.92,-109.7,72.26,25.37,13.78,-0.08,-0.21,0.93,1000
17:16:24.868,-14.83,3.49,-109.52,56.28,21.71,16.34,-0.07,-0.18,0.91,1000
17:16:24.879,-13.64,3.89,-109.33,39.63,18.17,18.17,-0.06,-0.16,0.91,1000
17:16:24.890,-12.63,4.08,-109.13,23.54,15.61,18.66,-0.07,-0.15,0.9,1000
17:16:24.901,-11.83,4.3,-108.93,9.63,14.15,18.11,-0.1,-0.14,0.92,1000
17:16:24.912,-11.22,4.65,-108.74,-2.8,12.32,16.65,-0.1,-0.16,0.92,1000
17:16:24.923,-10.99,5.0,-108.56,-11.71,7.99,14.94,-0.1,-0.2,0.94,1000
17:16:24.934,-11.1,5.4,-108.41,-15.91,1.52,12.8,-0.13,-0.22,0.95,1000
17:16:24.955,-11.43,5.82,-108.27,-14.15,-7.13,11.22,-0.17,-0.24,0.96,1000
17:16:24.959,-11.89,6.56,-108.15,-9.88,-15.61,10.61,-0.2,-0.23,0.95,1000
17:16:24.967,-12.22,7.09,-108.04,-3.29,-24.27,8.96,-0.14,-0.24,0.94,1000
17:16:24.978,-12.62,7.19,-107.95,3.48,-29.51,6.89,-0.08,-0.25,0.95,1000
17:16:24.989,-12.94,6.69,-107.89,10.91,-30.12,3.84,-0.04,-0.24,0.94,1000
17:16:25.001,-13.13,5.73,-107.86,17.93,-26.28,0.79,-0.03,-0.23,0.96,1000
17:16:25.013,-13.06,5.07,-107.86,23.17,-20.79,-1.65,-0.02,-0.22,0.98,1000
17:16:25.023,-12.86,4.19,-107.89,28.41,-13.29,-4.27,-0.01,-0.21,1.0,1000
17:16:25.035,-12.45,3.51,-107.96,32.2,-5.37,-6.4,-0.03,-0.18,1.01,1000
17:16:25.044,-11.92,3.13,-108.02,33.54,0.61,-7.13,-0.04,-0.16,1.02,1000
17:16:25.062,-11.28,3.01,-108.1,32.44,4.76,-7.62,-0.07,-0.15,1.03,1000
17:16:25.067,-10.36,3.19,-108.19,28.17,5.73,-7.68,-0.1,-0.12,1.03,1000
17:16:25.077,-9.67,3.51,-108.26,23.05,4.33,-6.89,-0.11,-0.11,1.02,1000
17:16:25.088,-8.71,4.09,-108.34,15.3,2.2,-5.55,-0.11,-0.1,1.0,1000
17:16:25.099,-7.92,4.55,-108.39,6.77,0.43,-3.35,-0.1,-0.09,1.0,1000
17:16:25.110,-7.36,4.78,-108.41,-2.44,-0.3,-0.55,-0.09,-0.08,0.99,1000
17:16:25.123,-6.84,4.89,-108.4,-12.38,-0.98,2.68,-0.08,-0.08,1.0,1000
17:16:25.132,-6.5,4.89,-108.35,-21.16,-2.07,6.65,-0.08,-0.08,1.0,1000
17:16:25.145,-6.29,4.84,-108.27,-27.5,-3.84,9.82,-0.08,-0.09,1.01,1000
17:16:25.160,-6.29,4.74,-108.14,-32.8,-5.49,12.74,-0.07,-0.11,1.01,1000
17:16:25.166,-6.38,4.61,-108.01,-35.06,-6.77,14.15,-0.07,-0.12,1.02,1000
17:16:25.176,-6.66,4.47,-107.83,-36.22,-8.84,14.21,-0.08,-0.14,1.03,1000
17:16:25.187,-7.05,4.39,-107.68,-34.33,-13.11,12.74,-0.1,-0.16,1.04,1000
17:16:25.224,-7.55,4.37,-107.55,-29.21,-19.88,10.98,-0.1,-0.19,1.03,1000
17:16:25.225,-8.1,4.34,-107.44,-19.51,-27.26,8.6,-0.1,-0.21,1.03,1000
17:16:25.226,-8.81,4.34,-107.37,-8.72,-33.41,5.55,-0.1,-0.23,1.01,1000
17:16:25.231,-9.45,4.24,-107.33,4.39,-37.56,1.77,-0.09,-0.24,1.02,1000
17:16:25.247,-10.04,4.04,-107.33,20.0,-40.43,-2.56,-0.07,-0.25,1.03,1000
17:16:25.254,-10.38,3.74,-107.38,33.41,-42.93,-6.34,-0.06,-0.25,1.04,1000
17:16:25.266,-10.66,3.3,-107.46,45.98,-45.55,-8.96,-0.06,-0.23,1.04,1000
17:16:25.275,-10.54,2.86,-107.57,57.01,-49.63,-9.7,-0.06,-0.21,1.02,1000
17:16:25.286,-10.24,2.44,-107.67,68.23,-54.7,-8.96,-0.05,-0.2,1.01,1000
17:16:25.297,-9.84,2.01,-107.76,78.05,-59.82,-7.38,-0.04,-0.19,0.99,1000
17:16:25.308,-9.31,1.56,-107.83,87.87,-64.27,-5.18,-0.04,-0.18,0.98,1000
17:16:25.319,-8.69,1.11,-107.87,96.22,-68.29,-1.95,-0.03,-0.16,0.97,1000
17:16:25.330,-7.93,0.63,-107.88,102.8,-72.44,2.13,-0.01,-0.13,0.97,1000
17:16:25.341,-7.01,0.01,-107.83,109.39,-76.95,6.16,0.02,-0.1,0.97,1000
17:16:25.352,-5.81,-0.83,-107.75,114.02,-79.27,8.78,0.06,-0.06,0.97,1000
17:16:25.366,-4.41,-1.98,-107.65,117.01,-80.24,9.33,0.1,-0.03,0.97,1000
17:16:25.374,-2.94,-3.17,-107.55,118.48,-80.18,8.54,0.1,0.01,0.98,1000
17:16:25.385,-1.4,-4.3,-107.46,118.96,-79.27,7.07,0.11,0.02,0.98,1000
17:16:25.396,0.14,-5.37,-107.4,120.12,-79.63,5.06,0.12,0.03,0.99,1000
17:16:25.407,1.55,-6.37,-107.35,121.83,-79.45,4.45,0.12,0.05,0.97,1000
17:16:25.418,2.97,-7.15,-107.29,125.55,-75.55,6.16,0.12,0.08,0.97,1000
17:16:25.431,4.41,-7.85,-107.21,130.3,-68.9,9.21,0.17,0.09,0.98,1000
17:16:25.441,5.8,-8.75,-107.1,132.13,-63.17,10.0,0.24,0.12,0.95,1000
17:16:25.451,7.25,-10.1,-106.99,129.94,-57.74,10.06,0.24,0.17,0.92,1000
17:16:25.468,8.87,-11.45,-106.88,124.82,-54.63,9.82,0.23,0.19,0.89,1000
17:16:25.475,10.31,-12.38,-106.78,117.68,-56.34,9.63,0.22,0.22,0.89,1000
17:16:25.485,11.97,-13.35,-106.67,107.8,-62.38,9.45,0.23,0.24,0.88,1000
17:16:25.495,13.42,-14.09,-106.56,99.82,-71.52,10.24,0.21,0.25,0.88,1000
17:16:25.506,14.66,-14.72,-106.44,96.77,-79.15,12.38,0.27,0.25,0.88,1000
17:16:25.517,15.7,-15.79,-106.3,94.15,-80.0,13.17,0.36,0.28,0.88,1000
17:16:25.529,16.65,-17.31,-106.16,91.34,-75.73,10.06,0.5,0.44,0.82,1000
17:16:25.539,17.45,-18.62,-106.08,78.6,-58.11,5.85,0.43,0.49,1.14,1000
17:16:25.554,18.4,-20.03,-106.06,62.8,-55.61,-1.4,0.18,0.15,1.08,1000
17:16:25.575,18.76,-20.38,-106.11,48.78,-49.27,-8.29,0.29,0.16,0.88,1000
17:16:25.575,19.14,-20.88,-106.23,35.73,-51.59,-14.94,0.34,0.25,0.86,1000
17:16:25.585,19.45,-21.33,-106.42,26.89,-55.55,-19.09,0.29,0.27,0.81,1000
17:16:25.594,19.81,-21.6,-106.64,23.72,-64.82,-21.95,0.26,0.25,0.75,1000
17:16:25.605,19.82,-21.85,-106.89,27.56,-69.15,-24.39,0.4,0.29,0.76,1000
17:16:25.616,19.55,-22.86,-107.18,33.23,-65.12,-28.23,0.46,0.26,0.78,1000
17:16:25.628,19.18,-24.23,-107.52,38.35,-53.78,-33.29,0.52,0.34,0.87,1000
17:16:25.638,19.1,-25.2,-107.9,42.26,-29.7,-37.26,0.5,0.33,0.92,1000
17:16:25.649,19.16,-25.79,-108.3,40.91,-14.51,-41.22,0.51,0.33,0.95,1000
17:16:25.660,19.41,-26.15,-108.81,34.09,-6.77,-43.66,0.46,0.41,0.89,1000
17:16:25.678,19.76,-26.15,-109.25,23.05,-4.27,-42.99,0.44,0.4,0.95,1000
17:16:25.682,20.24,-25.92,-109.7,9.15,-5.91,-38.9,0.43,0.44,0.83,1000
17:16:25.693,20.96,-25.73,-110.12,-10.3,-4.45,-30.37,0.47,0.43,0.84,1000
17:16:25.704,21.66,-25.86,-110.42,-27.8,-6.34,-21.46,0.44,0.45,0.77,1000
17:16:25.717,22.09,-25.87,-110.61,-44.27,-6.28,-9.57,0.4,0.45,0.89,1000
17:16:25.726,22.22,-25.65,-110.68,-53.72,-5.3,-2.13,0.4,0.44,0.87,1000
17:16:25.737,22.34,-25.38,-110.67,-59.51,-6.22,3.54,0.47,0.46,0.88,1000
17:16:25.748,22.26,-25.1,-110.63,-58.66,-6.89,4.82,0.39,0.39,0.9,1000
17:16:25.760,21.81,-24.7,-110.59,-50.55,-10.43,1.52,0.39,0.34,0.92,1000
17:16:25.770,20.98,-24.29,-110.6,-38.84,-10.67,-5.0,0.41,0.3,0.93,1000
17:16:25.781,20.03,-24.11,-110.7,-27.74,-9.39,-14.02,0.43,0.28,0.91,1000
17:16:25.792,19.15,-24.16,-110.91,-17.8,-7.68,-24.82,0.44,0.32,0.88,1000
17:16:25.803,18.73,-24.19,-111.23,-12.68,-7.62,-34.88,0.37,0.32,0.88,1000
17:16:25.814,18.61,-23.92,-111.65,-10.37,-12.8,-41.83,0.36,0.34,0.87,1000
17:16:25.825,18.69,-23.55,-112.14,-7.8,-19.57,-46.59,0.36,0.33,0.9,1000
17:16:25.838,18.76,-23.32,-112.66,-3.05,-27.07,-48.6,0.38,0.31,0.87,1000
17:16:25.847,18.78,-23.33,-113.19,4.33,-31.77,-47.99,0.41,0.32,0.85,1000
17:16:25.862,18.8,-23.68,-113.75,13.78,-33.05,-44.76,0.42,0.32,0.84,1000
17:16:25.873,18.93,-24.02,-114.18,22.01,-32.56,-39.7,0.41,0.34,0.84,1000
17:16:25.884,19.2,-24.3,-114.58,29.51,-30.06,-31.52,0.4,0.34,0.87,1000
17:16:25.893,19.61,-24.45,-114.89,34.02,-29.27,-23.72,0.42,0.36,0.84,1000
17:16:25.902,20.13,-24.66,-115.11,35.0,-31.16,-15.79,0.42,0.38,0.85,1000
17:16:25.913,20.63,-24.86,-115.24,33.05,-35.98,-9.27,0.4,0.38,0.82,1000
17:16:25.925,21.26,-25.09,-115.31,32.44,-44.7,-2.99,0.4,0.38,0.82,1000
17:16:25.936,21.82,-25.35,-115.32,32.87,-50.55,1.34,0.43,0.38,0.8,1000
17:16:25.950,22.34,-25.77,-115.3,34.15,-50.43,2.44,0.44,0.4,0.83,1000
17:16:25.957,22.78,-26.1,-115.28,35.0,-44.63,0.91,0.44,0.4,0.85,1000
17:16:25.981,23.13,-26.23,-115.29,34.27,-37.32,-3.23,0.44,0.41,0.87,1000
17:16:25.982,23.4,-26.19,-115.36,30.37,-32.2,-9.21,0.44,0.42,0.84,1000
17:16:25.990,23.65,-26.08,-115.49,23.29,-32.2,-15.91,0.41,0.41,0.85,1000
17:16:26.001,23.83,-25.89,-115.67,17.87,-36.65,-20.61,0.39,0.41,0.83,1000
17:16:26.012,23.94,-25.6,-115.94,12.62,-43.23,-24.82,0.4,0.39,0.83,1000
17:16:26.023,23.87,-25.57,-116.22,12.13,-45.24,-26.71,0.44,0.37,0.82,1000
17:16:26.038,23.67,-25.85,-116.52,13.96,-42.62,-26.16,0.48,0.38,0.81,1000
17:16:26.045,23.51,-26.27,-116.77,17.5,-36.34,-23.54,0.49,0.39,0.84,1000
17:16:26.056,23.42,-26.71,-117.01,22.07,-29.21,-18.6,0.49,0.4,0.84,1000
17:16:26.074,23.33,-27.07,-117.2,24.39,-22.93,-12.56,0.5,0.4,0.85,1000
17:16:26.090,23.35,-27.38,-117.31,22.87,-20.55,-7.56,0.5,0.41,0.81,1000
17:16:26.091,23.47,-27.65,-117.37,19.82,-21.28,-3.41,0.49,0.44,0.82,1000
17:16:26.100,23.78,-27.84,-117.38,16.16,-23.84,1.89,0.49,0.47,0.82,1000
17:16:26.112,24.21,-27.98,-117.35,14.21,-25.24,4.94,0.51,0.48,0.83,1000
17:16:26.122,24.72,-28.06,-117.28,13.17,-23.9,6.4,0.49,0.48,0.85,1000
17:16:26.133,25.11,-28.01,-117.21,14.33,-20.24,5.61,0.5,0.46,0.85,1000
17:16:26.145,25.34,-27.95,-117.16,14.21,-15.06,2.5,0.51,0.46,0.83,1000
17:16:26.155,25.47,-28.01,-117.16,12.5,-10.37,-1.83,0.51,0.46,0.82,1000
17:16:26.170,25.6,-28.04,-117.2,9.45,-7.26,-5.3,0.5,0.48,0.81,1000
17:16:26.178,25.75,-28.0,-117.26,6.04,-5.43,-7.38,0.5,0.49,0.83,1000
17:16:26.191,25.96,-27.92,-117.35,2.56,-3.17,-7.93,0.51,0.5,0.81,1000
17:16:26.199,26.23,-27.96,-117.44,-2.07,-0.3,-7.2,0.54,0.49,0.81,1000
17:16:26.212,26.41,-28.15,-117.51,-5.79,2.07,-6.04,0.54,0.5,0.81,1000
17:16:26.221,26.56,-28.3,-117.57,-9.33,4.88,-4.33,0.55,0.52,0.81,1000
17:16:26.232,26.71,-28.41,-117.61,-12.44,7.93,-3.35,0.54,0.52,0.81,1000
17:16:26.243,26.8,-28.43,-117.65,-16.34,12.32,-3.84,0.54,0.51,0.82,1000
17:16:26.254,26.84,-28.39,-117.7,-19.82,16.77,-4.7,0.53,0.51,0.83,1000
17:16:26.265,26.78,-28.25,-117.75,-23.66,19.39,-5.98,0.53,0.5,0.81,1000
17:16:26.283,26.67,-28.12,-117.83,-27.32,20.55,-7.01,0.5,0.49,0.81,1000
17:16:26.288,26.53,-27.91,-117.9,-29.21,19.7,-7.26,0.49,0.47,0.81,1000
17:16:26.298,26.31,-27.68,-117.98,-29.09,19.88,-7.2,0.5,0.46,0.82,1000
17:16:26.309,25.99,-27.48,-118.06,-27.07,23.6,-6.83,0.51,0.45,0.84,1000
17:16:26.320,25.63,-27.3,-118.14,-25.12,28.35,-6.65,0.52,0.45,0.82,1000
17:16:26.331,25.29,-27.25,-118.22,-25.43,31.95,-7.07,0.5,0.44,0.81,1000
17:16:26.344,25.03,-27.13,-118.29,-27.38,32.13,-6.89,0.47,0.45,0.81,1000
17:16:26.353,24.9,-26.84,-118.37,-29.45,29.57,-5.79,0.45,0.47,0.82,1000
17:16:26.364,24.9,-26.43,-118.42,-30.79,27.32,-4.21,0.47,0.47,0.83,1000
17:16:26.375,24.88,-26.1,-118.46,-30.91,28.84,-3.35,0.49,0.47,0.85,1000
17:16:26.389,24.78,-25.81,-118.5,-30.18,35.18,-4.39,0.48,0.46,0.89,1000
17:16:26.397,24.55,-25.42,-118.56,-30.06,43.41,-6.77,0.47,0.44,0.89,1000
17:16:26.408,24.23,-25.05,-118.64,-31.22,49.02,-9.7,0.46,0.43,0.88,1000
17:16:26.419,23.81,-24.55,-118.77,-35.61,51.71,-12.68,0.44,0.43,0.85,1000
17:16:26.430,23.51,-24.09,-118.92,-41.22,50.91,-14.21,0.42,0.44,0.86,1000
17:16:26.441,23.29,-23.54,-119.08,-47.32,49.7,-13.84,0.4,0.44,0.86,1000
17:16:26.453,23.08,-22.95,-119.22,-52.07,49.21,-12.38,0.4,0.42,0.88,1000
17:16:26.463,22.75,-22.4,-119.35,-55.79,50.49,-10.37,0.4,0.4,0.88,1000
17:16:26.477,22.22,-22.01,-119.45,-59.45,50.43,-8.23,0.41,0.36,0.87,1000
17:16:26.485,21.52,-21.72,-119.53,-61.28,49.09,-5.61,0.38,0.36,0.88,1000
17:16:26.496,20.79,-21.32,-119.58,-61.52,47.99,-2.93,0.38,0.35,0.92,1000
17:16:26.507,19.98,-20.82,-119.6,-60.73,49.27,-0.61,0.37,0.33,0.93,1000
17:16:26.527,19.23,-20.36,-119.6,-60.49,50.98,1.34,0.38,0.31,0.93,1000
17:16:26.529,18.36,-19.98,-119.57,-59.82,50.0,3.05,0.36,0.31,0.91,1000
17:16:26.540,17.75,-19.57,-119.53,-57.32,45.18,4.63,0.32,0.32,0.92,1000
17:16:26.561,17.29,-19.04,-119.47,-52.38,38.84,5.85,0.32,0.3,0.93,1000
17:16:26.563,16.88,-18.57,-119.41,-46.4,34.09,5.37,0.32,0.29,0.92,1000
17:16:26.573,16.49,-18.17,-119.36,-38.9,33.6,3.17,0.31,0.28,0.95,1000
17:16:26.584,16.1,-17.75,-119.34,-31.77,35.98,-0.24,0.31,0.27,0.96,1000
17:16:26.597,15.7,-17.25,-119.35,-27.26,39.88,-3.78,0.3,0.27,0.99,1000
17:16:26.606,15.34,-16.76,-119.41,-24.21,43.9,-7.13,0.29,0.26,1.01,1000
17:16:26.617,14.9,-16.08,-119.51,-22.62,47.8,-9.94,0.28,0.27,1.01,1000
17:16:26.628,14.62,-15.51,-119.63,-23.66,49.21,-11.22,0.29,0.27,0.98,1000
17:16:26.639,14.45,-15.05,-119.75,-27.07,48.11,-11.22,0.26,0.28,0.97,1000
17:16:26.651,14.38,-14.51,-119.87,-31.04,46.22,-10.0,0.23,0.27,0.97,1000
17:16:26.661,14.25,-13.85,-119.97,-36.65,44.94,-7.2,0.23,0.26,0.97,1000
17:16:26.672,14.01,-13.24,-120.03,-42.07,45.06,-3.84,0.23,0.25,0.98,1000
17:16:26.683,13.72,-12.67,-120.05,-47.26,47.99,0.91,0.23,0.26,0.99,1000
17:16:26.695,13.39,-12.15,-120.02,-52.5,52.26,5.0,0.22,0.24,1.0,1000
17:16:26.705,12.94,-11.63,-119.95,-57.62,58.11,8.96,0.22,0.22,1.02,1000
17:16:26.716,12.33,-11.09,-119.83,-63.48,62.68,12.87,0.21,0.21,1.02,1000
17:16:26.727,11.6,-10.57,-119.67,-69.33,65.06,16.59,0.2,0.19,1.0,1000
17:16:26.738,10.83,-10.05,-119.47,-75.06,63.72,20.55,0.18,0.18,0.97,1000
17:16:26.749,10.06,-9.53,-119.22,-79.88,60.06,24.33,0.16,0.16,0.96,1000
17:16:26.760,9.28,-8.99,-118.94,-84.09,55.91,27.74,0.14,0.14,0.95,1000
17:16:26.771,8.42,-8.41,-118.62,-86.89,53.23,30.3,0.13,0.12,0.96,1000
17:16:26.783,7.43,-7.79,-118.28,-89.27,52.99,31.65,0.11,0.09,0.96,1000
17:16:26.802,6.36,-7.1,-117.92,-91.1,54.02,33.23,0.09,0.08,0.97,1000
17:16:26.804,5.26,-6.34,-117.55,-91.77,54.76,33.9,0.08,0.06,0.97,1000
17:16:26.815,4.18,-5.58,-117.18,-90.98,53.96,33.78,0.08,0.04,0.96,1000
17:16:26.826,3.05,-4.92,-116.81,-88.96,50.55,33.11,0.08,0.01,0.94,1000
17:16:26.837,1.91,-4.43,-116.45,-85.43,44.7,31.77,0.07,-0.0,0.94,1000
17:16:26.848,0.74,-4.02,-116.11,-79.21,37.44,30.91,0.05,-0.03,0.94,1000
17:16:26.863,-0.41,-3.58,-115.77,-70.91,30.85,30.06,0.05,-0.05,0.96,1000
17:16:26.872,-1.47,-3.21,-115.44,-61.46,25.85,29.27,0.05,-0.09,0.97,1000
17:16:26.885,-2.52,-2.98,-115.13,-53.48,24.7,28.23,0.07,-0.09,0.98,1000
17:16:26.901,-3.41,-2.82,-114.82,-46.95,27.26,27.93,0.05,-0.08,1.01,1000
17:16:26.905,-3.99,-2.62,-114.54,-41.28,30.91,28.29,0.04,-0.07,1.02,1000
17:16:26.914,-4.42,-2.29,-114.2,-35.12,34.45,28.54,0.04,-0.07,1.02,1000
17:16:26.925,-4.65,-1.93,-113.89,-29.94,35.24,28.48,0.02,-0.07,1.01,1000
17:16:26.936,-4.78,-1.51,-113.57,-25.0,33.29,27.87,0.01,-0.07,0.99,1000
17:16:26.949,-4.81,-1.07,-113.24,-20.0,28.54,26.71,0.02,-0.06,0.98,1000
17:16:26.958,-4.72,-0.81,-113.01,-16.71,24.27,25.43,0.01,-0.05,0.98,1000
17:16:26.969,-4.55,-0.58,-112.74,-12.87,17.56,23.11,0.01,-0.05,0.98,1000
17:16:26.982,-4.26,-0.36,-112.46,-8.84,10.0,19.33,-0.0,-0.05,0.98,1000
17:16:26.991,-4.05,-0.22,-112.3,-6.4,5.49,16.34,-0.01,-0.05,0.99,1000
17:16:27.008,-3.83,-0.01,-112.13,-2.87,1.46,11.46,-0.02,-0.06,1.0,1000
17:16:27.013,-3.68,0.18,-112.02,-0.3,-1.22,6.95,-0.02,-0.06,1.01,1000
17:16:27.024,-3.54,0.34,-111.96,1.34,-2.07,3.05,-0.02,-0.05,1.02,1000
17:16:27.035,-3.3,0.45,-111.95,2.2,-2.99,-0.18,-0.01,-0.04,1.02,1000
17:16:27.048,-3.06,0.48,-111.96,2.56,-4.51,-2.07,-0.0,-0.04,1.02,1000
17:16:27.057,-2.8,0.41,-111.99,2.93,-7.2,-3.17,0.0,-0.03,1.01,1000
17:16:27.068,-2.54,0.25,-112.02,3.54,-9.33,-2.87,0.01,-0.03,1.0,1000
17:16:27.079,-2.31,0.04,-112.05,5.12,-9.94,-2.26,0.02,-0.04,0.99,1000
17:16:27.090,-2.13,-0.2,-112.07,6.77,-8.17,-1.77,0.03,-0.03,0.99,1000
17:16:27.104,-1.97,-0.55,-112.09,7.44,-4.76,-1.83,0.04,-0.03,1.0,1000
17:16:27.112,-1.79,-0.94,-112.11,6.89,0.06,-2.2,0.04,-0.02,1.01,1000
17:16:27.123,-1.57,-1.23,-112.14,4.51,4.09,-2.56,0.03,-0.01,1.02,1000
17:16:27.135,-1.36,-1.29,-112.17,1.28,5.61,-2.38,0.01,-0.01,1.02,1000
17:16:27.145,-1.16,-1.19,-112.19,-2.56,5.06,-1.52,0.0,-0.01,1.02,1000
17:16:27.156,-1.02,-1.01,-112.2,-5.85,3.78,0.37,0.01,-0.01,1.01,1000
17:16:27.169,-0.96,-0.9,-112.18,-7.93,3.23,2.56,0.02,-0.02,1.0,1000
17:16:27.179,-1.0,-0.88,-112.14,-8.41,3.78,4.82,0.02,-0.04,1.01,1000
17:16:27.192,-1.2,-0.84,-112.08,-7.32,5.3,6.83,0.02,-0.05,1.01,1000
17:16:27.202,-1.4,-0.8,-112.0,-5.43,7.26,7.8,0.02,-0.06,1.03,1000
17:16:27.215,-1.69,-0.75,-111.9,-3.66,9.15,8.78,0.01,-0.05,1.03,1000
17:16:27.222,-1.86,-0.62,-111.82,-2.87,10.18,9.02,-0.0,-0.04,1.03,1000
17:16:27.233,-1.95,-0.35,-111.71,-2.62,9.15,8.9,-0.02,-0.04,1.03,1000
17:16:27.244,-1.96,-0.06,-111.61,-2.87,6.71,8.48,-0.02,-0.03,1.02,1000
17:16:27.255,-1.95,0.21,-111.53,-3.11,4.09,7.26,-0.02,-0.04,1.0,1000
17:16:27.266,-2.0,0.42,-111.45,-3.17,1.65,5.79,-0.02,-0.05,1.0,1000
17:16:27.277,-2.16,0.58,-111.4,-3.17,-1.28,3.6,-0.02,-0.06,1.01,1000
17:16:27.288,-2.41,0.74,-111.37,-2.93,-4.33,1.52,-0.03,-0.06,1.02,1000
17:16:27.299,-2.6,0.89,-111.36,-1.95,-6.4,-0.24,-0.04,-0.06,1.02,1000
17:16:27.311,-2.74,1.04,-111.37,0.06,-7.5,-1.46,-0.03,-0.05,1.03,1000
17:16:27.321,-2.76,1.06,-111.39,2.13,-7.26,-2.13,-0.01,-0.05,1.03,1000
17:16:27.332,-2.73,0.99,-111.42,3.9,-6.28,-2.74,-0.01,-0.05,1.03,1000
17:16:27.343,-2.64,0.88,-111.45,6.1,-4.82,-2.8,0.0,-0.05,1.04,1000
17:16:27.354,-2.57,0.72,-111.48,7.62,-3.48,-3.29,0.01,-0.05,1.04,1000
17:16:27.365,-2.56,0.49,-111.52,8.66,-1.71,-4.02,0.01,-0.06,1.04,1000
17:16:27.376,-2.57,0.35,-111.57,8.6,0.12,-5.12,0.0,-0.06,1.03,1000
17:16:27.387,-2.63,0.24,-111.64,7.87,0.37,-6.22,0.01,-0.06,1.03,1000
17:16:27.398,-2.68,0.15,-111.71,6.22,-0.24,-7.62,0.01,-0.05,1.04,1000
17:16:27.416,-2.7,0.06,-111.8,3.72,-1.16,-8.29,0.0,-0.05,1.04,1000
17:16:27.420,-2.67,0.0,-111.88,1.52,-1.34,-8.72,0.0,-0.04,1.04,1000
17:16:27.433,-2.64,-0.05,-111.99,-1.16,-1.28,-9.02,0.0,-0.05,1.03,1000
17:16:27.442,-2.69,-0.09,-112.09,-3.17,-0.3,-8.96,0.0,-0.06,1.03,1000
17:16:27.453,-2.85,-0.11,-112.19,-4.45,1.04,-8.66,0.01,-0.07,1.03,1000
17:16:27.466,-3.08,-0.12,-112.28,-4.76,1.83,-8.05,0.0,-0.09,1.02,1000
17:16:27.477,-3.42,-0.14,-112.37,-4.45,1.65,-7.44,0.01,-0.1,1.02,1000
17:16:27.486,-3.84,-0.17,-112.44,-3.66,1.1,-6.34,0.0,-0.1,1.02,1000
17:16:27.499,-4.21,-0.18,-112.5,-2.56,0.67,-4.94,0.0,-0.1,1.03,1000
17:16:27.515,-4.48,-0.17,-112.55,-0.91,0.61,-2.62,0.0,-0.09,1.03,1000
17:16:27.519,-4.6,-0.17,-112.56,0.43,1.1,0.0,0.0,-0.08,1.03,1000
17:16:27.532,-4.63,-0.18,-112.54,1.77,2.01,2.62,0.01,-0.08,1.03,1000
17:16:27.541,-4.57,-0.23,-112.51,2.44,2.32,4.39,0.01,-0.07,1.02,1000
17:16:27.552,-4.48,-0.3,-112.45,2.93,2.26,5.06,0.01,-0.07,1.03,1000
17:16:27.563,-4.39,-0.33,-112.4,3.48,2.07,4.76,0.0,-0.07,1.03,1000
17:16:27.574,-4.31,-0.3,-112.35,3.66,1.95,3.41,0.0,-0.08,1.03,1000
17:16:27.585,-4.3,-0.29,-112.32,3.72,0.91,1.34,0.01,-0.09,1.03,1000
17:16:27.596,-4.35,-0.3,-112.32,3.84,-0.12,-0.98,0.01,-0.09,1.03,1000
17:16:27.612,-4.38,-0.3,-112.34,4.27,-1.04,-2.2,0.0,-0.08,1.03,1000
17:16:27.618,-4.36,-0.3,-112.37,5.12,-1.46,-2.56,-0.0,-0.07,1.03,1000
17:16:27.630,-4.25,-0.29,-112.4,6.04,-1.34,-2.5,0.01,-0.07,1.03,1000
17:16:27.640,-4.07,-0.37,-112.42,6.59,-1.1,-1.95,0.02,-0.06,1.04,1000
17:16:27.651,-3.84,-0.45,-112.44,6.34,-0.37,-1.22,0.01,-0.05,1.03,1000
17:16:27.662,-3.6,-0.46,-112.45,5.73,0.73,-0.79,0.0,-0.05,1.04,1000
17:16:27.673,-3.4,-0.38,-112.46,5.0,1.16,-0.67,-0.01,-0.05,1.03,1000
17:16:27.684,-3.25,-0.22,-112.47,4.21,1.77,-0.91,-0.01,-0.06,1.04,1000
17:16:27.695,-3.16,-0.06,-112.47,3.6,2.99,-0.37,-0.01,-0.05,1.03,1000
17:16:27.706,-3.07,0.09,-112.48,3.29,4.51,0.43,-0.01,-0.05,1.03,1000
17:16:27.719,-2.97,0.22,-112.47,2.56,5.12,1.1,-0.01,-0.05,1.02,1000
17:16:27.729,-2.86,0.31,-112.45,1.83,4.82,2.2,-0.01,-0.04,1.02,1000
17:16:27.739,-2.75,0.41,-112.42,0.85,3.48,3.35,-0.01,-0.04,1.02,1000
17:16:27.750,-2.67,0.47,-112.38,0.06,1.83,3.78,-0.01,-0.04,1.02,1000
17:16:27.761,-2.62,0.46,-112.34,-1.04,0.67,4.09,-0.0,-0.04,1.02,1000
17:16:27.773,-2.6,0.43,-112.29,-1.71,0.37,4.09,-0.01,-0.05,1.03,1000
17:16:27.784,-2.61,0.42,-112.25,-2.32,1.16,3.72,-0.0,-0.05,1.03,1000
17:16:27.797,-2.66,0.4,-112.21,-2.87,1.95,3.17,-0.0,-0.05,1.03,1000
17:16:27.807,-2.72,0.39,-112.18,-2.5,2.5,2.26,-0.01,-0.05,1.03,1000
17:16:27.822,-2.76,0.44,-112.16,-1.89,3.23,1.95,-0.01,-0.05,1.03,1000
17:16:27.827,-2.79,0.49,-112.14,-1.16,3.6,1.71,-0.01,-0.05,1.03,1000
17:16:27.838,-2.82,0.51,-112.12,-0.3,3.35,1.28,-0.01,-0.06,1.02,1000
17:16:27.849,-2.85,0.52,-112.11,0.61,3.54,0.85,-0.01,-0.06,1.03,1000
17:16:27.861,-2.87,0.58,-112.1,1.65,4.15,0.85,-0.02,-0.06,1.03,1000
17:16:27.871,-2.91,0.67,-112.09,2.62,5.06,0.91,-0.01,-0.06,1.03,1000
17:16:27.886,-2.96,0.74,-112.08,3.05,6.16,0.55,-0.01,-0.06,1.02,1000
17:16:27.893,-2.99,0.8,-112.07,3.17,6.52,0.85,-0.02,-0.05,1.02,1000
17:16:27.909,-2.98,0.87,-112.06,2.68,5.61,1.1,-0.02,-0.06,1.02,1000
17:16:27.919,-2.97,0.95,-112.05,1.77,3.78,1.4,-0.02,-0.05,1.01,1000
17:16:27.927,-2.95,1.03,-112.03,0.55,1.46,1.65,-0.02,-0.05,1.01,1000
17:16:27.937,-2.93,1.06,-112.01,-0.3,-0.79,1.89,-0.02,-0.05,1.01,1000
17:16:27.948,-2.9,1.05,-111.99,-1.04,-2.26,2.13,-0.02,-0.05,1.02,1000
17:16:27.961,-2.87,1.03,-111.97,-1.16,-3.35,2.13,-0.02,-0.05,1.02,1000
17:16:27.970,-2.85,1.02,-111.95,-1.04,-3.23,1.89,-0.02,-0.05,1.03,1000
17:16:27.983,-2.84,1.03,-111.93,-0.55,-2.99,1.46,-0.02,-0.05,1.02,1000
17:16:27.992,-2.84,1.05,-111.92,0.06,-2.44,0.73,-0.02,-0.05,1.02,1000
17:16:28.003,-2.84,1.07,-111.91,0.43,-2.68,0.18,-0.02,-0.05,1.02,1000
17:16:28.014,-2.81,1.06,-111.91,1.1,-2.87,-0.24,-0.02,-0.05,1.03,1000
17:16:28.027,-2.77,1.04,-111.92,1.28,-3.35,-0.43,-0.02,-0.04,1.03,1000
17:16:28.036,-2.69,1.04,-111.92,1.52,-4.09,-0.61,-0.01,-0.05,1.04,1000
17:16:28.047,-2.63,0.96,-111.93,1.46,-4.63,-0.49,-0.01,-0.04,1.03,1000
17:16:28.058,-2.55,0.89,-111.93,1.34,-4.63,-0.18,-0.02,-0.04,1.03,1000
17:16:28.069,-2.43,0.86,-111.93,1.28,-4.39,0.43,-0.01,-0.04,1.02,1000
17:16:28.081,-2.35,0.8,-111.93,1.04,-4.39,0.55,-0.01,-0.04,1.03,1000
17:16:28.091,-2.29,0.72,-111.92,0.49,-4.63,0.61,-0.01,-0.04,1.03,1000
17:16:28.103,-2.26,0.66,-111.91,-0.12,-4.63,0.61,-0.01,-0.04,1.03,1000
17:16:28.114,-2.25,0.59,-111.91,-0.98,-4.7,0.3,-0.0,-0.04,1.02,1000
17:16:28.128,-2.26,0.47,-111.91,-1.59,-4.88,-0.37,0.01,-0.04,1.03,1000
17:16:28.146,-2.29,0.28,-111.92,-2.5,-5.06,-1.04,0.0,-0.04,1.04,1000
17:16:28.147,-2.32,0.14,-111.93,-2.93,-4.76,-1.22,0.0,-0.04,1.03,1000
17:16:28.157,-2.35,0.04,-111.95,-3.48,-4.45,-1.77,0.01,-0.05,1.03,1000
17:16:28.168,-2.4,-0.08,-111.97,-3.72,-4.39,-2.32,0.01,-0.05,1.04,1000
17:16:28.179,-2.48,-0.2,-112.0,-3.96,-3.84,-2.99,0.01,-0.05,1.05,1000
17:16:28.195,-2.55,-0.29,-112.03,-3.96,-2.87,-2.99,0.01,-0.05,1.04,1000
17:16:28.203,-2.6,-0.34,-112.06,-3.72,-1.46,-3.17,0.0,-0.05,1.04,1000
17:16:28.216,-2.67,-0.35,-112.1,-3.9,-0.55,-2.87,0.01,-0.06,1.03,1000
17:16:28.232,-2.78,-0.34,-112.13,-3.84,-0.24,-2.44,0.0,-0.06,1.03,1000
17:16:28.235,-2.89,-0.31,-112.15,-3.66,-0.49,-2.01,-0.0,-0.06,1.03,1000
17:16:28.245,-3.0,-0.27,-112.17,-3.66,-1.22,-0.91,0.0,-0.06,1.03,1000
17:16:28.256,-3.09,-0.24,-112.17,-3.6,-1.71,0.18,0.01,-0.06,1.03,1000
17:16:28.267,-3.17,-0.26,-112.17,-3.29,-2.5,0.85,0.01,-0.06,1.03,1000
17:16:28.278,-3.22,-0.3,-112.15,-2.68,-2.68,1.52,0.0,-0.06,1.04,1000
17:16:28.294,-3.27,-0.3,-112.13,-2.07,-2.44,1.95,0.0,-0.06,1.03,1000
17:16:28.300,-3.31,-0.29,-112.11,-1.34,-2.07,2.13,0.0,-0.07,1.03,1000
17:16:28.311,-3.41,-0.28,-112.09,-0.61,-1.77,1.65,0.01,-0.07,1.03,1000
17:16:28.322,-3.49,-0.3,-112.07,-0.24,-1.89,1.16,0.01,-0.07,1.03,1000
17:16:28.337,-3.55,-0.37,-112.06,0.0,-2.2,0.73,0.01,-0.06,1.04,1000
17:16:28.344,-3.56,-0.42,-112.06,0.55,-2.2,0.24,0.01,-0.06,1.03,1000
17:16:28.355,-3.54,-0.44,-112.06,0.98,-2.2,-0.06,0.01,-0.06,1.03,1000
17:16:28.366,-3.5,-0.46,-112.06,1.22,-1.89,-0.43,0.01,-0.06,1.03,1000
17:16:28.377,-3.45,-0.48,-112.07,1.4,-1.65,-0.91,0.01,-0.06,1.03,1000
17:16:28.388,-3.37,-0.49,-112.08,1.65,-1.46,-1.04,0.01,-0.05,1.04,1000
17:16:28.399,-3.25,-0.5,-112.09,1.4,-1.1,-1.1,0.01,-0.05,1.03,1000
17:16:28.410,-3.14,-0.5,-112.1,1.22,-0.43,-1.04,0.01,-0.05,1.03,1000
17:16:28.421,-3.06,-0.5,-112.11,0.49,0.0,-1.34,0.01,-0.05,1.04,1000
17:16:28.436,-3.01,-0.46,-112.13,-0.06,0.06,-1.16,0.0,-0.05,1.03,1000
17:16:28.444,-2.99,-0.4,-112.14,-0.49,0.24,-1.04,0.0,-0.05,1.03,1000
17:16:28.454,-3.0,-0.34,-112.15,-1.1,-0.12,-0.91,0.0,-0.05,1.02,1000
17:16:28.465,-3.0,-0.31,-112.16,-1.46,-0.61,-0.3,0.0,-0.05,1.02,1000
17:16:28.476,-2.99,-0.25,-112.16,-1.77,-1.22,0.43,-0.0,-0.05,1.02,1000
17:16:28.487,-2.99,-0.19,-112.15,-2.01,-1.59,1.04,0.0,-0.06,1.02,1000
17:16:28.501,-3.05,-0.17,-112.14,-2.26,-2.38,0.91,0.0,-0.06,1.02,1000
17:16:28.509,-3.13,-0.19,-112.13,-2.38,-2.8,0.91,0.0,-0.07,1.02,1000
17:16:28.523,-3.26,-0.18,-112.12,-2.56,-3.6,0.91,-0.0,-0.06,1.02,1000
17:16:28.531,-3.35,-0.18,-112.11,-2.62,-4.02,1.28,0.0,-0.06,1.02,1000
17:16:28.543,-3.43,-0.2,-112.1,-2.56,-4.51,1.28,0.01,-0.06,1.02,1000
17:16:28.553,-3.45,-0.24,-112.08,-2.56,-4.51,1.46,0.01,-0.06,1.02,1000
17:16:28.564,-3.44,-0.29,-112.07,-2.13,-4.21,1.77,0.01,-0.06,1.02,1000
17:16:28.575,-3.42,-0.36,-112.05,-1.89,-4.09,1.52,0.01,-0.06,1.03,1000
17:16:28.586,-3.41,-0.4,-112.03,-1.4,-3.54,1.59,0.0,-0.06,1.03,1000
17:16:28.597,-3.41,-0.44,-112.01,-1.16,-3.17,1.22,0.01,-0.06,1.03,1000
17:16:28.608,-3.44,-0.51,-112.0,-0.79,-2.68,0.49,0.02,-0.07,1.03,1000
17:16:28.620,-3.5,-0.6,-112.0,-0.49,-2.32,-0.18,0.01,-0.07,1.03,1000
17:16:28.630,-3.53,-0.66,-112.0,-0.24,-2.26,-0.12,0.01,-0.06,1.03,1000
17:16:28.642,-3.54,-0.73,-112.0,-0.18,-2.62,-0.18,0.02,-0.06,1.03,1000
17:16:28.652,-3.53,-0.8,-112.0,-0.3,-3.17,0.0,0.01,-0.06,1.03,1000
17:16:28.663,-3.51,-0.85,-112.0,-0.55,-3.23,0.37,0.02,-0.06,1.03,1000
17:16:28.674,-3.47,-0.88,-112.0,-0.67,-2.99,0.24,0.02,-0.06,1.03,1000
17:16:28.686,-3.44,-0.93,-112.0,-0.85,-2.87,0.37,0.02,-0.06,1.03,1000
17:16:28.696,-3.44,-0.98,-112.0,-1.1,-2.38,0.37,0.02,-0.06,1.03,1000
17:16:28.707,-3.42,-1.01,-111.99,-1.04,-2.07,0.37,0.02,-0.06,1.03,1000
17:16:28.718,-3.41,-1.05,-111.99,-1.34,-1.95,0.18,0.02,-0.06,1.03,1000
17:16:28.729,-3.38,-1.09,-111.99,-1.4,-2.07,0.06,0.02,-0.06,1.03,1000
17:16:28.740,-3.36,-1.11,-111.99,-1.77,-2.74,-0.18,0.02,-0.06,1.02,1000
17:16:28.752,-3.34,-1.1,-111.99,-1.71,-3.29,-0.37,0.01,-0.06,1.03,1000
17:16:28.762,-3.35,-1.08,-112.0,-1.4,-3.72,-0.79,0.01,-0.06,1.02,1000
17:16:28.773,-3.35,-1.07,-112.01,-1.1,-4.02,-0.85,0.02,-0.06,1.02,1000
17:16:28.784,-3.35,-1.08,-112.01,-1.16,-4.15,-1.22,0.02,-0.06,1.03,1000
17:16:28.795,-3.36,-1.11,-112.03,-0.91,-4.88,-1.59,0.02,-0.06,1.03,1000
17:16:28.806,-3.37,-1.15,-112.05,-0.49,-5.3,-1.59,0.02,-0.06,1.03,1000
17:16:28.818,-3.34,-1.2,-112.06,-0.37,-5.3,-1.52,0.02,-0.06,1.03,1000
17:16:28.830,-3.3,-1.25,-112.08,-0.18,-4.57,-1.46,0.03,-0.05,1.03,1000
17:16:28.840,-3.26,-1.3,-112.1,-0.12,-4.09,-1.77,0.03,-0.06,1.03,1000
17:16:28.852,-3.24,-1.36,-112.12,-0.06,-3.6,-1.95,0.03,-0.06,1.03,1000
17:16:28.881,-3.24,-1.43,-112.14,-0.18,-3.6,-2.26,0.03,-0.06,1.03,1000
17:16:28.885,-3.25,-1.51,-112.17,-0.61,-3.48,-2.56,0.03,-0.06,1.04,1000
17:16:28.897,-3.27,-1.58,-112.2,-0.67,-3.84,-2.62,0.03,-0.06,1.04,1000
17:16:28.899,-3.29,-1.66,-112.23,-0.49,-3.48,-2.87,0.04,-0.06,1.04,1000
17:16:28.905,-3.31,-1.73,-112.26,0.0,-2.8,-2.56,0.04,-0.06,1.04,1000
17:16:28.916,-3.34,-1.79,-112.28,0.12,-1.65,-2.26,0.04,-0.06,1.04,1000
17:16:28.928,-3.38,-1.86,-112.31,0.3,-0.3,-1.83,0.04,-0.07,1.04,1000
17:16:28.938,-3.43,-1.92,-112.33,0.24,0.0,-1.46,0.04,-0.07,1.04,1000
17:16:28.949,-3.48,-1.94,-112.34,0.12,-0.12,-0.61,0.03,-0.06,1.03,1000
17:16:28.960,-3.48,-1.93,-112.34,-0.24,-0.24,0.0,0.03,-0.06,1.03,1000
17:16:28.971,-3.47,-1.92,-112.34,-0.73,-0.91,0.73,0.04,-0.06,1.03,1000
17:16:28.982,-3.45,-1.93,-112.32,-1.04,-1.22,1.34,0.03,-0.06,1.03,1000
17:16:28.993,-3.44,-1.92,-112.31,-1.16,-1.22,1.59,0.03,-0.06,1.03,1000
17:16:29.006,-3.41,-1.88,-112.29,-1.4,-1.1,1.71,0.03,-0.06,1.03,1000
17:16:29.015,-3.39,-1.84,-112.27,-1.65,-0.79,1.4,0.03,-0.06,1.03,1000
17:16:29.026,-3.4,-1.8,-112.26,-1.46,-0.85,0.91,0.03,-0.06,1.03,1000
17:16:29.037,-3.42,-1.78,-112.25,-1.52,-0.91,0.43,0.03,-0.06,1.03,1000
17:16:29.055,-3.43,-1.75,-112.25,-1.1,-1.16,-0.12,0.03,-0.06,1.03,1000
17:16:29.059,-3.45,-1.73,-112.25,-0.85,-1.4,-0.73,0.03,-0.06,1.02,1000
17:16:29.070,-3.47,-1.72,-112.26,-0.24,-1.34,-1.22,0.03,-0.06,1.03,1000
17:16:29.081,-3.47,-1.72,-112.28,0.18,-1.22,-1.52,0.03,-0.06,1.03,1000
17:16:29.092,-3.44,-1.7,-112.3,0.67,-0.61,-1.65,0.03,-0.06,1.03,1000
17:16:29.103,-3.4,-1.69,-112.32,0.98,0.18,-2.2,0.03,-0.06,1.03,1000
17:16:29.115,-3.36,-1.71,-112.34,0.91,-0.06,-2.13,0.04,-0.06,1.03,1000
17:16:29.125,-3.34,-1.73,-112.37,0.49,-0.61,-2.5,0.03,-0.06,1.03,1000
17:16:29.138,-3.35,-1.75,-112.39,0.18,-1.22,-2.68,0.03,-0.06,1.03,1000
17:16:29.153,-3.38,-1.77,-112.42,-0.18,-1.34,-2.93,0.04,-0.07,1.03,1000
17:16:29.159,-3.43,-1.8,-112.46,-0.37,-1.59,-2.93,0.03,-0.07,1.03,1000
17:16:29.169,-3.48,-1.82,-112.49,-0.24,-1.28,-2.8,0.03,-0.06,1.03,1000
17:16:29.180,-3.52,-1.81,-112.51,-0.43,-0.67,-2.26,0.03,-0.06,1.03,1000
17:16:29.191,-3.55,-1.79,-112.54,-0.24,0.18,-1.65,0.04,-0.07,1.03,1000
17:16:29.202,-3.6,-1.79,-112.55,-0.49,0.12,-1.34,0.03,-0.07,1.03,1000
17:16:29.213,-3.65,-1.76,-112.56,-0.49,0.3,-0.49,0.03,-0.07,1.02,1000
17:16:29.224,-3.71,-1.72,-112.56,-0.67,-0.06,0.18,0.03,-0.07,1.02,1000
17:16:29.235,-3.76,-1.71,-112.56,-0.91,-0.61,0.37,0.03,-0.07,1.02,1000
17:16:29.262,-3.8,-1.71,-112.56,-0.85,-1.1,0.98,0.03,-0.07,1.02,1000
17:16:29.262,-3.81,-1.69,-112.55,-1.04,-1.22,1.28,0.03,-0.07,1.03,1000
17:16:29.268,-3.82,-1.67,-112.53,-0.73,-1.34,1.4,0.03,-0.07,1.02,1000
17:16:29.279,-3.83,-1.66,-112.52,-0.55,-1.52,1.34,0.03,-0.07,1.03,1000
17:16:29.290,-3.85,-1.67,-112.5,-0.3,-1.65,1.1,0.03,-0.07,1.03,1000
17:16:29.301,-3.84,-1.69,-112.49,-0.18,-1.83,0.61,0.03,-0.07,1.02,1000
17:16:29.314,-3.81,-1.71,-112.49,-0.12,-2.32,0.55,0.03,-0.06,1.02,1000
17:16:29.323,-3.78,-1.74,-112.48,-0.18,-2.26,0.12,0.03,-0.06,1.02,1000
17:16:29.335,-3.74,-1.8,-112.48,-0.55,-2.87,-0.18,0.04,-0.06,1.02,1000
17:16:29.345,-3.72,-1.86,-112.48,-0.37,-3.05,-0.49,0.04,-0.07,1.03,1000
17:16:29.357,-3.71,-1.93,-112.49,-0.49,-2.93,-0.67,0.04,-0.06,1.03,1000
17:16:29.367,-3.71,-1.96,-112.5,-0.37,-2.8,-0.73,0.03,-0.07,1.03,1000
17:16:29.378,-3.7,-1.98,-112.51,0.0,-2.2,-0.49,0.04,-0.06,1.02,1000
17:16:29.389,-3.67,-2.0,-112.51,0.24,-1.71,-0.18,0.04,-0.06,1.03,1000
17:16:29.400,-3.63,-2.06,-112.51,0.3,-1.77,0.06,0.04,-0.06,1.02,1000
17:16:29.411,-3.59,-2.07,-112.51,0.24,-1.89,0.43,0.03,-0.06,1.02,1000
17:16:29.424,-3.55,-2.07,-112.5,0.43,-2.01,0.55,0.04,-0.06,1.03,1000
17:16:29.433,-3.52,-2.11,-112.5,0.37,-2.26,0.73,0.04,-0.06,1.03,1000
17:16:29.445,-3.48,-2.15,-112.49,0.3,-1.71,0.91,0.04,-0.06,1.03,1000
17:16:29.461,-3.43,-2.18,-112.47,0.12,-1.04,1.34,0.04,-0.06,1.02,1000
17:16:29.468,-3.4,-2.23,-112.46,-0.06,-0.61,1.16,0.05,-0.06,1.03,1000
17:16:29.477,-3.39,-2.32,-112.45,-0.43,-0.91,0.73,0.05,-0.06,1.03,1000
17:16:29.488,-3.37,-2.4,-112.44,-0.73,-1.1,0.37,0.05,-0.06,1.03,1000
17:16:29.499,-3.32,-2.44,-112.44,-0.98,-1.16,-0.18,0.04,-0.06,1.03,1000
17:16:29.510,-3.3,-2.43,-112.44,-1.1,-1.22,-0.73,0.04,-0.06,1.03,1000
17:16:29.525,-3.31,-2.41,-112.45,-1.46,-1.59,-1.22,0.04,-0.07,1.03,1000
17:16:29.532,-3.35,-2.41,-112.47,-1.28,-2.01,-1.46,0.04,-0.07,1.04,1000
17:16:29.548,-3.38,-2.37,-112.49,-1.16,-2.07,-1.65,0.03,-0.06,1.03,1000
17:16:29.558,-3.4,-2.33,-112.5,-0.73,-1.52,-1.65,0.04,-0.06,1.03,1000
17:16:29.570,-3.4,-2.29,-112.52,-0.37,-1.22,-1.4,0.04,-0.06,1.03,1000
17:16:29.576,-3.39,-2.27,-112.53,0.06,-1.04,-1.04,0.04,-0.06,1.03,1000
17:16:29.587,-3.36,-2.26,-112.54,0.18,-1.1,-0.91,0.03,-0.06,1.03,1000
17:16:29.598,-3.33,-2.23,-112.55,0.18,-1.59,-0.98,0.04,-0.06,1.02,1000
17:16:29.609,-3.29,-2.21,-112.56,0.06,-1.89,-0.91,0.04,-0.06,1.03,1000
17:16:29.621,-3.26,-2.23,-112.57,-0.06,-2.68,-1.1,0.05,-0.06,1.03,1000
17:16:29.632,-3.27,-2.29,-112.59,-0.49,-3.11,-1.22,0.04,-0.06,1.03,1000
17:16:29.642,-3.3,-2.35,-112.6,-0.73,-3.23,-1.1,0.05,-0.06,1.03,1000
17:16:29.653,-3.33,-2.4,-112.61,-0.61,-3.23,-1.52,0.05,-0.06,1.04,1000
17:16:29.670,-3.37,-2.47,-112.63,-0.61,-2.93,-1.52,0.05,-0.06,1.03,1000
17:16:29.675,-3.38,-2.52,-112.65,-0.24,-2.5,-1.34,0.05,-0.06,1.03,1000
17:16:29.686,-3.37,-2.6,-112.66,-0.3,-2.07,-1.04,0.05,-0.06,1.03,1000
17:16:29.697,-3.34,-2.67,-112.67,-0.18,-1.71,-0.85,0.05,-0.06,1.03,1000
17:16:29.708,-3.31,-2.73,-112.68,-0.37,-1.34,-0.91,0.05,-0.06,1.03,1000
17:16:29.719,-3.28,-2.76,-112.69,-0.49,-1.22,-1.16,0.05,-0.06,1.03,1000
17:16:29.730,-3.27,-2.79,-112.7,-0.73,-0.85,-0.85,0.05,-0.06,1.03,1000
17:16:29.741,-3.27,-2.81,-112.71,-0.91,-0.79,-1.04,0.05,-0.06,1.03,1000
17:16:29.754,-3.28,-2.78,-112.72,-0.98,-0.61,-0.73,0.05,-0.06,1.03,1000
17:16:29.768,-3.3,-2.75,-112.73,-0.85,-0.67,-1.04,0.05,-0.06,1.03,1000
17:16:29.774,-3.35,-2.75,-112.74,-0.91,-0.79,-1.34,0.04,-0.06,1.02,1000
17:16:29.785,-3.38,-2.73,-112.76,-0.91,-1.04,-1.46,0.04,-0.06,1.02,1000
17:16:29.796,-3.41,-2.69,-112.77,-0.79,-1.22,-1.46,0.05,-0.06,1.03,1000
17:16:29.807,-3.44,-2.66,-112.79,-0.73,-1.52,-1.71,0.04,-0.06,1.03,1000
17:16:29.818,-3.46,-2.64,-112.81,-0.61,-1.77,-1.65,0.04,-0.06,1.02,1000
17:16:29.832,-3.48,-2.63,-112.83,-0.3,-1.77,-1.59,0.05,-0.06,1.02,1000
17:16:29.840,-3.5,-2.65,-112.85,-0.3,-2.13,-1.71,0.05,-0.06,1.02,1000
17:16:29.855,-3.52,-2.67,-112.87,-0.24,-2.13,-1.95,0.04,-0.06,1.02,1000
17:16:29.865,-3.54,-2.67,-112.89,-0.24,-2.07,-1.95,0.05,-0.07,1.02,1000
17:16:29.876,-3.57,-2.7,-112.91,-0.06,-2.07,-2.07,0.05,-0.07,1.03,1000
17:16:29.885,-3.61,-2.74,-112.94,-0.06,-2.13,-2.32,0.05,-0.07,1.03,1000
17:16:29.895,-3.62,-2.78,-112.96,0.12,-1.83,-2.44,0.05,-0.06,1.03,1000
17:16:29.906,-3.62,-2.82,-112.99,0.3,-1.77,-2.44,0.05,-0.07,1.03,1000
17:16:29.917,-3.62,-2.86,-113.01,0.06,-1.59,-2.32,0.05,-0.06,1.03,1000
17:16:29.928,-3.62,-2.89,-113.04,-0.12,-1.22,-2.32,0.05,-0.06,1.03,1000
17:16:29.939,-3.64,-2.9,-113.06,-0.43,-0.98,-2.26,0.05,-0.07,1.03,1000
17:16:29.950,-3.72,-2.87,-113.09,-0.61,-1.04,-2.07,0.04,-0.08,1.03,1000
17:16:29.961,-3.81,-2.83,-113.11,-0.73,-1.4,-2.01,0.04,-0.08,1.02,1000
17:16:29.973,-3.9,-2.79,-113.13,-0.98,-1.59,-1.4,0.05,-0.07,1.02,1000
17:16:29.983,-3.95,-2.77,-113.14,-1.28,-1.95,-0.98,0.05,-0.07,1.02,1000
17:16:29.994,-3.98,-2.79,-113.15,-1.28,-2.5,-0.43,0.05,-0.07,1.02,1000
17:16:30.005,-3.99,-2.82,-113.15,-1.89,-2.99,0.61,0.05,-0.07,1.02,1000
17:16:30.017,-3.98,-2.87,-113.14,-2.44,-2.87,1.22,0.05,-0.07,1.02,1000
17:16:30.027,-3.98,-2.92,-113.12,-2.99,-2.99,1.65,0.06,-0.07,1.03,1000
17:16:30.038,-4.01,-2.98,-113.1,-4.27,-3.11,1.95,0.05,-0.07,1.03,1000
17:16:30.049,-4.08,-3.0,-113.08,-5.49,-2.56,2.2,0.05,-0.08,1.03,1000
17:16:30.060,-4.17,-3.0,-113.05,-6.59,-2.2,2.44,0.05,-0.08,1.04,1000
17:16:30.076,-4.31,-3.01,-113.02,-7.68,-1.28,2.56,0.05,-0.08,1.03,1000
17:16:30.082,-4.45,-3.0,-112.99,-8.29,-0.61,2.99,0.05,-0.08,1.03,1000
17:16:30.093,-4.58,-2.99,-112.96,-8.66,0.0,3.35,0.05,-0.09,1.03,1000
17:16:30.104,-4.69,-2.97,-112.92,-8.9,0.0,4.21,0.05,-0.08,1.03,1000
17:16:30.115,-4.77,-2.95,-112.87,-8.96,-0.18,5.18,0.05,-0.08,1.02,1000
17:16:30.126,-4.84,-2.95,-112.8,-8.6,-0.49,5.91,0.05,-0.08,1.02,1000
17:16:30.139,-4.88,-2.96,-112.73,-8.29,-0.91,6.65,0.05,-0.08,1.02,1000
17:16:30.149,-4.9,-2.97,-112.66,-7.38,-1.28,7.13,0.05,-0.08,1.02,1000
17:16:30.162,-4.88,-2.97,-112.57,-6.46,-1.52,7.38,0.05,-0.08,1.03,1000
17:16:30.172,-4.86,-2.98,-112.5,-5.49,-1.59,7.38,0.05,-0.08,1.03,1000
17:16:30.184,-4.83,-3.0,-112.42,-4.15,-1.1,6.71,0.05,-0.08,1.03,1000
17:16:30.192,-4.75,-3.0,-112.35,-2.87,-0.73,6.1,0.06,-0.08,1.03,1000
17:16:30.203,-4.67,-3.02,-112.29,-1.52,-0.49,4.94,0.06,-0.08,1.03,1000
17:16:30.214,-4.6,-3.02,-112.24,-0.43,-0.73,3.29,0.05,-0.08,1.03,1000
17:16:30.225,-4.54,-3.01,-112.21,0.49,-0.73,1.89,0.05,-0.08,1.03,1000
17:16:30.236,-4.48,-3.0,-112.2,1.34,-1.22,0.61,0.05,-0.08,1.03,1000
17:16:30.247,-4.4,-3.01,-112.2,2.13,-1.22,-1.04,0.06,-0.08,1.03,1000
17:16:30.258,-4.34,-3.04,-112.22,2.68,-1.34,-1.89,0.06,-0.08,1.03,1000
17:16:30.269,-4.29,-3.06,-112.24,3.05,-1.46,-2.93,0.06,-0.08,1.03,1000
17:16:30.284,-4.23,-3.1,-112.27,3.05,-1.65,-3.17,0.06,-0.08,1.02,1000
17:16:30.291,-4.18,-3.12,-112.31,3.11,-2.07,-3.6,0.06,-0.08,1.03,1000
17:16:30.320,-4.14,-3.16,-112.35,2.93,-2.26,-3.72,0.06,-0.07,1.03,1000
17:16:30.324,-4.11,-3.23,-112.39,2.68,-2.26,-3.35,0.06,-0.07,1.03,1000
17:16:30.335,-4.07,-3.28,-112.42,2.38,-1.95,-2.99,0.06,-0.07,1.03,1000
17:16:30.338,-4.03,-3.34,-112.45,2.13,-1.59,-2.56,0.06,-0.07,1.03,1000
17:16:30.347,-3.99,-3.38,-112.48,1.71,-0.91,-2.01,0.06,-0.07,1.03,1000
17:16:30.357,-3.97,-3.42,-112.5,1.46,-0.67,-1.83,0.06,-0.07,1.03,1000
17:16:30.368,-3.97,-3.45,-112.52,1.22,-0.55,-1.52,0.07,-0.07,1.03,1000
17:16:30.379,-3.98,-3.49,-112.53,1.22,-0.61,-1.16,0.06,-0.07,1.03,1000
17:16:30.390,-3.99,-3.52,-112.55,1.1,-0.61,-1.22,0.06,-0.08,1.03,1000
17:16:30.401,-4.03,-3.53,-112.56,1.28,-0.12,-0.91,0.06,-0.08,1.03,1000
17:16:30.412,-4.07,-3.54,-112.57,1.4,0.0,-0.91,0.06,-0.08,1.03,1000
17:16:30.423,-4.13,-3.56,-112.58,1.77,-0.24,-1.1,0.06,-0.08,1.02,1000
17:16:30.434,-4.17,-3.55,-112.59,1.95,-0.37,-1.04,0.06,-0.08,1.03,1000
17:16:30.447,-4.2,-3.55,-112.61,2.38,-0.49,-0.73,0.07,-0.08,1.03,1000
17:16:30.456,-4.21,-3.56,-112.61,2.44,-0.91,-0.67,0.06,-0.07,1.03,1000
17:16:30.469,-4.18,-3.57,-112.62,2.56,-0.43,-0.43,0.06,-0.07,1.03,1000
17:16:30.485,-4.12,-3.56,-112.62,2.87,-0.61,-0.18,0.06,-0.07,1.03,1000
17:16:30.489,-4.06,-3.55,-112.62,2.99,-0.37,-0.37,0.06,-0.07,1.02,1000
17:16:30.500,-3.99,-3.52,-112.63,2.93,-0.12,-0.37,0.06,-0.07,1.02,1000
17:16:30.511,-3.91,-3.49,-112.63,2.5,0.0,-0.73,0.06,-0.07,1.02,1000
17:16:30.522,-3.85,-3.49,-112.64,2.13,0.06,-0.85,0.06,-0.07,1.02,1000
17:16:30.533,-3.8,-3.5,-112.66,1.71,-0.24,-1.59,0.06,-0.07,1.03,1000
17:16:30.544,-3.78,-3.49,-112.67,1.52,-0.3,-1.89,0.06,-0.07,1.03,1000
17:16:30.555,-3.78,-3.46,-112.7,1.65,-0.12,-2.38,0.06,-0.07,1.03,1000
17:16:30.572,-3.78,-3.43,-112.72,1.89,0.0,-2.38,0.06,-0.07,1.03,1000
17:16:30.577,-3.77,-3.42,-112.75,2.01,0.3,-2.44,0.06,-0.07,1.02,1000
17:16:30.588,-3.72,-3.43,-112.78,2.26,0.37,-2.44,0.06,-0.06,1.02,1000
17:16:30.599,-3.67,-3.42,-112.8,2.13,0.37,-2.32,0.06,-0.06,1.02,1000
17:16:30.610,-3.63,-3.42,-112.83,2.01,0.0,-2.5,0.06,-0.06,1.02,1000
17:16:30.621,-3.61,-3.42,-112.86,1.65,0.24,-2.8,0.06,-0.07,1.02,1000
17:16:30.632,-3.61,-3.4,-112.89,1.34,0.12,-2.68,0.06,-0.07,1.02,1000
17:16:30.645,-3.65,-3.38,-112.92,1.28,0.3,-2.87,0.06,-0.07,1.02,1000
17:16:30.654,-3.7,-3.35,-112.95,1.1,0.24,-2.62,0.06,-0.07,1.02,1000
17:16:30.665,-3.75,-3.34,-112.97,0.67,-0.12,-2.62,0.06,-0.07,1.02,1000
17:16:30.676,-3.8,-3.33,-113.0,0.49,-0.49,-2.38,0.06,-0.07,1.02,1000
17:16:30.688,-3.86,-3.33,-113.03,0.55,-1.16,-2.32,0.06,-0.07,1.02,1000
17:16:30.698,-3.91,-3.35,-113.05,0.55,-1.28,-2.13,0.06,-0.07,1.03,1000
17:16:30.709,-3.94,-3.39,-113.08,0.49,-1.16,-2.01,0.06,-0.07,1.03,1000
17:16:30.720,-3.96,-3.41,-113.1,0.55,-0.61,-1.77,0.06,-0.07,1.03,1000
17:16:30.731,-3.97,-3.43,-113.12,0.49,-0.3,-1.65,0.06,-0.07,1.03,1000
17:16:30.742,-3.98,-3.44,-113.13,0.24,0.18,-1.65,0.06,-0.07,1.03,1000
17:16:30.753,-3.97,-3.43,-113.15,-0.12,0.12,-1.34,0.06,-0.07,1.03,1000
17:16:30.764,-3.95,-3.41,-113.16,-0.37,0.3,-0.91,0.06,-0.07,1.03,1000
17:16:30.776,-3.93,-3.39,-113.17,-0.43,0.0,-0.79,0.06,-0.07,1.03,1000
17:16:30.798,-3.91,-3.38,-113.17,-0.43,-0.49,-0.24,0.06,-0.06,1.03,1000
17:16:30.799,-3.87,-3.37,-113.18,-0.06,-0.3,-0.06,0.06,-0.07,1.03,1000
17:16:30.808,-3.83,-3.35,-113.18,0.12,-0.18,0.18,0.06,-0.07,1.03,1000
17:16:30.819,-3.8,-3.32,-113.18,0.49,0.43,0.18,0.06,-0.06,1.03,1000
17:16:30.831,-3.77,-3.3,-113.18,0.79,0.55,0.0,0.06,-0.07,1.03,1000
17:16:30.841,-3.75,-3.29,-113.18,0.67,0.61,-0.18,0.06,-0.07,1.02,1000
17:16:30.852,-3.73,-3.28,-113.18,0.55,0.24,-0.61,0.06,-0.06,1.02,1000
17:16:30.863,-3.7,-3.28,-113.18,0.49,0.12,-0.79,0.06,-0.06,1.02,1000
17:16:30.879,-3.67,-3.3,-113.19,0.3,0.12,-1.1,0.06,-0.06,1.03,1000
17:16:30.898,-3.64,-3.33,-113.21,-0.24,-0.18,-1.28,0.06,-0.06,1.02,1000
17:16:30.899,-3.6,-3.32,-113.22,-0.24,-0.18,-1.46,0.06,-0.06,1.03,1000
17:16:30.907,-3.58,-3.3,-113.24,-0.43,0.12,-1.34,0.05,-0.06,1.03,1000
17:16:30.918,-3.54,-3.27,-113.25,-0.24,0.37,-0.98,0.06,-0.06,1.02,1000
17:16:30.929,-3.5,-3.24,-113.26,-0.18,0.73,-0.61,0.06,-0.06,1.02,1000
17:16:30.940,-3.47,-3.24,-113.26,-0.06,0.24,-0.06,0.06,-0.06,1.02,1000
17:16:30.953,-3.46,-3.27,-113.26,-0.18,-0.37,0.0,0.06,-0.06,1.02,1000
17:16:30.962,-3.46,-3.29,-113.26,-0.43,-0.73,-0.18,0.06,-0.06,1.02,1000
17:16:30.973,-3.49,-3.29,-113.27,-0.55,-1.1,-0.79,0.06,-0.07,1.03,1000
17:16:30.986,-3.55,-3.28,-113.28,-0.49,-0.73,-1.1,0.06,-0.07,1.03,1000
17:16:31.003,-3.59,-3.26,-113.29,-0.3,-0.37,-1.34,0.06,-0.07,1.02,1000
17:16:31.006,-3.62,-3.27,-113.3,-0.3,0.37,-1.52,0.06,-0.06,1.02,1000
17:16:31.017,-3.62,-3.29,-113.32,-0.37,0.43,-1.1,0.06,-0.06,1.02,1000
17:16:31.028,-3.6,-3.33,-113.33,-0.55,-0.12,-0.98,0.06,-0.06,1.02,1000
17:16:31.039,-3.58,-3.38,-113.34,-0.85,-1.1,-0.79,0.06,-0.06,1.02,1000
17:16:31.050,-3.58,-3.39,-113.35,-1.1,-2.13,-0.98,0.06,-0.06,1.02,1000
17:16:31.062,-3.6,-3.37,-113.36,-1.1,-2.74,-1.1,0.06,-0.07,1.03,1000
17:16:31.072,-3.62,-3.34,-113.37,-0.79,-2.56,-1.04,0.06,-0.07,1.03,1000
17:16:31.083,-3.65,-3.33,-113.39,-0.73,-2.07,-1.46,0.06,-0.07,1.04,1000
17:16:31.096,-3.66,-3.35,-113.4,-0.37,-1.34,-1.59,0.06,-0.06,1.04,1000
17:16:31.105,-3.65,-3.38,-113.42,0.24,-0.24,-1.46,0.06,-0.06,1.04,1000
17:16:31.116,-3.62,-3.4,-113.44,0.3,0.24,-1.28,0.07,-0.06,1.03,1000
17:16:31.127,-3.6,-3.42,-113.45,0.49,0.67,-1.28,0.06,-0.07,1.03,1000
17:16:31.138,-3.6,-3.41,-113.47,0.43,0.37,-1.04,0.06,-0.07,1.02,1000
17:16:31.149,-3.61,-3.41,-113.48,0.24,-0.3,-0.98,0.06,-0.07,1.03,1000
17:16:31.163,-3.6,-3.38,-113.49,0.43,-0.3,-0.98,0.05,-0.06,1.04,1000
17:16:31.173,-3.61,-3.34,-113.5,0.73,-1.46,-0.98,0.07,-0.07,1.03,1000
17:16:31.186,-3.6,-3.38,-113.51,0.79,-1.4,-0.98,0.06,-0.06,1.04,1000
17:16:31.193,-3.57,-3.38,-113.52,1.1,-0.79,-0.91,0.06,-0.06,1.03,1000
17:16:31.208,-3.56,-3.4,-113.53,0.98,-0.3,-0.85,0.06,-0.07,1.03,1000
17:16:31.215,-3.57,-3.41,-113.54,0.73,0.0,-0.73,0.06,-0.06,1.03,1000
17:16:31.226,-3.58,-3.45,-113.55,0.49,-0.24,-0.85,0.07,-0.06,1.03,1000
17:16:31.238,-3.57,-3.5,-113.56,0.43,-0.43,-0.79,0.07,-0.06,1.03,1000
17:16:31.248,-3.55,-3.54,-113.57,0.18,-0.79,-0.43,0.07,-0.06,1.03,1000
17:16:31.259,-3.51,-3.58,-113.57,0.18,-0.61,-0.12,0.06,-0.06,1.03,1000
17:16:31.270,-3.46,-3.6,-113.57,0.12,-0.24,-0.06,0.06,-0.06,1.03,1000
17:16:31.281,-3.42,-3.59,-113.57,-0.12,0.43,0.18,0.07,-0.06,1.03,1000
17:16:31.292,-3.39,-3.61,-113.57,-0.18,0.85,0.37,0.06,-0.06,1.03,1000
17:16:31.304,-3.38,-3.6,-113.56,-0.3,1.04,0.3,0.06,-0.06,1.02,1000
