Timestamp,Roll,Pitch,Yaw,Gyro_X,Gyro_Y,Gyro_Z,Accel_X,Accel_Y,Accel_Z,Throttle
17:08:23.503,-8.08,1.19,-63.64,5.67,-5.18,-2.87,-0.02,-0.12,1.06,1000
17:08:23.504,-7.96,1.16,-63.66,6.46,-5.98,-0.61,-0.0,-0.13,1.04,1000
17:08:23.517,-7.86,1.05,-63.66,7.5,-6.1,1.89,0.01,-0.16,1.04,1000
17:08:23.526,-7.78,0.91,-63.62,8.17,-4.57,4.27,0.02,-0.13,1.02,1000
17:08:23.537,-7.7,0.79,-63.57,7.5,-1.95,5.06,0.01,-0.14,1.03,1000
17:08:23.549,-7.62,0.69,-63.52,6.71,1.04,4.21,-0.0,-0.13,0.99,1000
17:08:23.558,-7.54,0.68,-63.48,5.0,3.48,1.77,-0.02,-0.12,1.02,1000
17:08:23.570,-7.45,0.72,-63.48,2.87,4.33,-0.73,-0.01,-0.12,1.0,1000
17:08:23.582,-7.39,0.79,-63.5,1.65,3.29,-3.29,-0.05,-0.13,1.02,1000
17:08:23.592,-7.35,0.89,-63.54,0.79,0.49,-5.43,-0.03,-0.11,1.02,1000
17:08:23.605,-7.3,0.93,-63.6,-0.43,-2.99,-5.24,-0.0,-0.14,1.03,1000
17:08:23.614,-7.3,0.87,-63.65,-0.49,-5.79,-3.48,0.01,-0.14,1.01,1000
17:08:23.625,-7.3,0.74,-63.68,0.3,-6.65,-1.16,0.01,-0.13,1.02,1000
17:08:23.641,-7.31,0.57,-63.68,0.37,-5.43,0.06,0.0,-0.14,1.01,1000
17:08:23.652,-7.33,0.46,-63.68,0.61,-3.05,-0.3,-0.01,-0.13,1.01,1000
17:08:23.657,-7.33,0.42,-63.69,0.06,-0.43,-1.46,-0.0,-0.12,1.02,1000
17:08:23.675,-7.32,0.43,-63.71,0.24,2.07,-3.05,-0.03,-0.13,1.01,1000
17:08:23.685,-7.31,0.5,-63.76,0.61,2.8,-4.51,-0.02,-0.12,1.02,1000
17:08:23.691,-7.27,0.56,-63.81,0.55,1.77,-4.21,-0.01,-0.13,1.03,1000
17:08:23.703,-7.24,0.58,-63.85,1.22,-0.06,-2.62,-0.0,-0.12,1.02,1000
17:08:23.716,-7.21,0.56,-63.86,1.95,-1.52,-0.37,0.0,-0.13,1.02,1000
17:08:23.723,-7.19,0.51,-63.86,2.32,-2.13,0.91,-0.01,-0.14,1.02,1000
17:08:23.736,-7.16,0.48,-63.85,2.01,-1.46,1.22,-0.01,-0.12,1.02,1000
17:08:23.746,-7.13,0.46,-63.84,1.04,-0.12,1.16,-0.01,-0.13,1.02,1000
17:08:23.761,-7.12,0.48,-63.83,0.43,1.04,0.18,-0.02,-0.13,1.01,1000
17:08:23.768,-7.12,0.55,-63.83,0.43,1.28,-1.34,-0.05,-0.12,1.02,1000
17:08:23.781,-7.1,0.66,-63.85,0.18,0.3,-2.74,-0.03,-0.12,1.03,1000
17:08:23.790,-7.07,0.72,-63.88,-0.12,-1.77,-1.83,-0.01,-0.12,1.04,1000
17:08:23.802,-7.06,0.7,-63.89,1.65,-3.66,-0.12,-0.01,-0.13,1.01,1000
17:08:23.811,-7.05,0.67,-63.89,2.26,-4.82,1.16,-0.01,-0.13,1.04,1000
17:08:23.822,-7.03,0.61,-63.87,1.95,-4.7,2.32,0.0,-0.13,1.02,1000
17:08:23.834,-7.03,0.52,-63.84,1.52,-2.68,3.11,0.01,-0.13,1.03,1000
17:08:23.845,-7.02,0.45,-63.81,0.73,0.73,2.87,0.0,-0.12,1.01,1000
17:08:23.857,-7.02,0.41,-63.78,0.67,3.23,1.77,-0.01,-0.14,1.0,1000
17:08:23.869,-7.03,0.47,-63.78,-0.12,4.7,-1.04,-0.04,-0.12,1.02,1000
17:08:23.878,-7.02,0.57,-63.8,-0.67,4.45,-2.93,-0.02,-0.12,1.02,1000
17:08:23.888,-7.02,0.66,-63.84,-0.91,2.8,-3.72,-0.02,-0.13,1.02,1000
17:08:23.899,-7.01,0.71,-63.87,-0.67,-0.49,-3.29,-0.01,-0.11,1.02,1000
17:08:23.910,-6.98,0.69,-63.9,-0.61,-3.35,-2.01,-0.0,-0.13,1.03,1000
17:08:23.923,-6.99,0.62,-63.92,-0.43,-4.76,-0.91,-0.0,-0.13,1.02,1000
17:08:23.932,-7.0,0.55,-63.93,-0.61,-4.21,-0.55,-0.01,-0.13,1.02,1000
17:08:23.948,-7.01,0.51,-63.94,-0.98,-2.87,-1.83,-0.03,-0.13,1.02,1000
17:08:23.955,-7.01,0.52,-63.96,-1.04,-0.85,-2.8,-0.01,-0.12,1.02,1000
17:08:23.966,-7.0,0.54,-64.0,-1.04,0.55,-3.29,-0.02,-0.13,1.02,1000
17:08:23.977,-7.01,0.59,-64.03,-0.18,0.79,-3.29,-0.02,-0.12,1.02,1000
17:08:23.987,-7.0,0.64,-64.07,0.0,0.37,-2.68,-0.02,-0.12,1.04,1000
17:08:24.000,-6.98,0.66,-64.09,0.49,-0.98,-0.73,-0.01,-0.13,1.02,1000
17:08:24.010,-6.98,0.64,-64.08,1.16,-2.2,1.34,0.0,-0.13,1.03,1000
17:08:24.020,-6.98,0.58,-64.06,1.28,-2.2,3.29,0.0,-0.13,1.02,1000
17:08:24.034,-6.98,0.53,-64.02,1.52,-1.4,4.15,-0.02,-0.13,1.01,1000
17:08:24.044,-6.98,0.54,-63.98,1.16,-0.18,2.87,-0.02,-0.12,1.02,1000
17:08:24.054,-6.97,0.57,-63.95,0.06,0.91,1.95,-0.02,-0.12,1.02,1000
17:08:24.066,-6.96,0.61,-63.93,-0.43,0.91,1.4,-0.01,-0.12,1.02,1000
17:08:24.082,-6.95,0.62,-63.92,-0.91,0.37,1.28,-0.0,-0.12,1.02,1000
17:08:24.089,-6.95,0.6,-63.9,-1.28,-0.37,1.59,-0.0,-0.14,1.02,1000
17:08:24.097,-6.98,0.57,-63.89,-1.83,-0.79,1.46,-0.0,-0.12,1.02,1000
17:08:24.109,-7.01,0.54,-63.87,-1.95,-0.91,0.98,-0.02,-0.13,1.01,1000
17:08:24.121,-7.06,0.54,-63.87,-2.5,-0.91,-0.37,-0.01,-0.12,1.02,1000
17:08:24.131,-7.09,0.53,-63.87,-2.87,-1.04,-0.55,-0.0,-0.13,1.02,1000
17:08:24.141,-7.13,0.52,-63.88,-2.26,-1.16,-1.04,-0.02,-0.13,1.02,1000
17:08:24.153,-7.15,0.52,-63.89,-1.34,-1.59,-1.65,-0.01,-0.12,1.03,1000
17:08:24.163,-7.14,0.51,-63.91,-0.67,-2.07,-1.1,0.0,-0.13,1.03,1000
17:08:24.176,-7.14,0.47,-63.91,0.06,-2.01,0.24,0.01,-0.13,1.02,1000
17:08:24.187,-7.13,0.4,-63.9,1.04,-1.1,1.28,0.0,-0.13,1.02,1000
17:08:24.197,-7.14,0.37,-63.89,1.16,0.18,0.91,-0.02,-0.13,1.02,1000
17:08:24.207,-7.12,0.39,-63.88,1.71,0.67,0.0,-0.03,-0.12,1.01,1000
17:08:24.218,-7.1,0.48,-63.89,1.4,0.37,-1.65,-0.03,-0.12,1.03,1000
17:08:24.230,-7.06,0.55,-63.91,1.04,-0.61,-1.59,-0.01,-0.13,1.02,1000
17:08:24.240,-7.06,0.54,-63.92,0.91,-1.71,-0.06,0.0,-0.14,1.02,1000
17:08:24.255,-7.07,0.49,-63.91,0.61,-1.71,1.52,0.01,-0.13,1.01,1000
17:08:24.266,-7.08,0.43,-63.89,0.24,-0.61,2.32,-0.0,-0.13,1.02,1000
17:08:24.273,-7.09,0.41,-63.87,-0.12,1.22,1.83,-0.01,-0.13,1.0,1000
17:08:24.289,-7.07,0.44,-63.86,-0.67,2.5,0.49,-0.02,-0.11,1.02,1000
17:08:24.296,-7.04,0.5,-63.86,-1.16,2.87,-0.3,-0.0,-0.11,1.01,1000
17:08:24.306,-7.03,0.53,-63.86,-1.1,2.32,-0.37,-0.01,-0.13,1.01,1000
17:08:24.317,-7.04,0.57,-63.87,-0.98,0.73,-0.55,-0.02,-0.12,1.01,1000
17:08:24.328,-7.04,0.63,-63.88,-1.28,-1.1,-1.16,-0.02,-0.13,1.03,1000
17:08:24.350,-7.05,0.65,-63.88,-1.52,-2.07,-0.49,-0.01,-0.12,1.02,1000
17:08:24.358,-7.07,0.61,-63.88,-1.52,-2.68,1.22,0.0,-0.13,1.03,1000
17:08:24.362,-7.09,0.55,-63.86,-0.85,-1.83,2.32,0.0,-0.14,1.0,1000
17:08:24.374,-7.11,0.51,-63.84,-0.98,-0.73,1.89,-0.02,-0.13,1.03,1000
17:08:24.386,-7.12,0.51,-63.82,-1.34,0.98,1.22,-0.0,-0.13,1.01,1000
17:08:24.397,-7.15,0.53,-63.81,-1.34,1.71,0.85,-0.02,-0.13,1.03,1000
17:08:24.405,-7.16,0.57,-63.81,-1.4,1.65,0.0,-0.01,-0.12,1.03,1000
17:08:24.417,-7.16,0.59,-63.81,-1.4,0.67,0.85,0.0,-0.13,1.03,1000
17:08:24.428,-7.18,0.57,-63.79,-1.28,-0.37,1.71,0.01,-0.13,1.02,1000
17:08:24.438,-7.2,0.49,-63.77,-1.22,-0.61,2.68,0.01,-0.13,1.03,1000
17:08:24.449,-7.22,0.41,-63.74,-1.46,-0.12,2.68,0.01,-0.13,1.02,1000
17:08:24.460,-7.23,0.37,-63.72,-1.77,0.98,1.52,-0.01,-0.12,1.03,1000
17:08:24.471,-7.24,0.36,-63.71,-2.01,1.65,-0.12,-0.01,-0.12,1.02,1000
17:08:24.492,-7.24,0.38,-63.72,-2.62,2.56,-1.71,0.0,-0.13,1.03,1000
17:08:24.495,-7.25,0.36,-63.74,-2.99,2.93,-1.89,0.01,-0.13,1.02,1000
17:08:24.505,-7.27,0.34,-63.76,-3.11,3.48,-1.89,0.01,-0.13,1.02,1000
17:08:24.515,-7.31,0.33,-63.79,-2.93,4.09,-2.8,-0.0,-0.13,1.02,1000
17:08:24.530,-7.34,0.35,-63.82,-2.93,4.76,-3.72,-0.0,-0.15,1.02,1000
17:08:24.539,-7.4,0.41,-63.87,-2.5,4.94,-5.24,-0.05,-0.13,1.02,1000
17:08:24.549,-7.41,0.54,-63.94,-1.46,3.78,-7.13,-0.04,-0.12,1.03,1000
17:08:24.567,-7.4,0.65,-64.01,-1.22,1.59,-6.83,-0.02,-0.14,1.04,1000
17:08:24.573,-7.4,0.69,-64.08,-1.1,-0.37,-5.24,-0.0,-0.12,1.03,1000
17:08:24.582,-7.4,0.68,-64.13,-0.49,-2.01,-2.99,-0.01,-0.14,1.04,1000
17:08:24.602,-7.42,0.64,-64.15,-0.06,-2.26,-0.73,0.01,-0.14,1.03,1000
17:08:24.604,-7.44,0.57,-64.15,0.0,-0.55,0.67,0.0,-0.14,1.03,1000
17:08:24.614,-7.46,0.53,-64.14,-0.43,1.95,1.1,-0.0,-0.14,1.01,1000
17:08:24.625,-7.49,0.56,-64.13,-0.12,3.84,-0.43,-0.05,-0.13,1.02,1000
17:08:24.638,-7.49,0.69,-64.15,-0.67,3.96,-2.8,-0.04,-0.12,1.03,1000
17:08:24.649,-7.47,0.82,-64.18,-0.55,2.32,-3.29,-0.04,-0.14,1.03,1000
17:08:24.658,-7.46,0.92,-64.22,0.43,-1.28,-3.11,-0.03,-0.13,1.03,1000
17:08:24.670,-7.44,0.96,-64.24,1.4,-4.45,-1.4,-0.0,-0.14,1.04,1000
17:08:24.681,-7.43,0.89,-64.25,2.13,-5.79,1.16,0.0,-0.15,1.02,1000
17:08:24.696,-7.44,0.79,-64.23,2.87,-4.63,2.44,-0.01,-0.14,1.02,1000
17:08:24.704,-7.43,0.73,-64.2,3.05,-1.89,2.01,-0.02,-0.13,1.01,1000
17:08:24.714,-7.41,0.76,-64.19,3.05,0.85,0.3,-0.03,-0.13,1.01,1000
17:08:24.725,-7.37,0.84,-64.19,2.2,2.62,-1.1,-0.02,-0.12,1.02,1000
17:08:24.735,-7.32,0.89,-64.2,1.04,3.11,-0.3,0.0,-0.13,1.02,1000
17:08:24.747,-7.31,0.88,-64.2,0.73,3.17,0.79,0.0,-0.13,1.01,1000
17:08:24.757,-7.31,0.87,-64.19,0.06,2.68,1.22,-0.03,-0.13,1.01,1000
17:08:24.768,-7.3,0.91,-64.18,-0.43,1.95,0.61,-0.03,-0.13,1.01,1000
17:08:24.780,-7.3,0.97,-64.17,-1.83,1.22,-0.37,-0.03,-0.12,1.03,1000
17:08:24.790,-7.3,1.01,-64.18,-2.44,0.43,-0.24,-0.01,-0.13,1.02,1000
17:08:24.802,-7.31,1.01,-64.18,-2.32,0.49,-0.18,-0.01,-0.12,1.01,1000
17:08:24.812,-7.31,1.01,-64.18,-1.28,1.1,-0.3,-0.03,-0.13,1.01,1000
17:08:24.823,-7.31,1.06,-64.19,-0.49,1.77,-1.28,-0.03,-0.12,1.02,1000
17:08:24.834,-7.29,1.12,-64.2,-0.43,2.38,-1.28,-0.01,-0.13,1.03,1000
17:08:24.847,-7.28,1.14,-64.21,0.18,2.5,-0.37,-0.01,-0.13,1.02,1000
17:08:24.856,-7.27,1.15,-64.21,0.61,2.13,0.67,-0.01,-0.13,1.03,1000
17:08:24.870,-7.28,1.14,-64.2,0.79,1.22,1.52,-0.01,-0.15,1.02,1000
17:08:24.880,-7.31,1.14,-64.18,0.67,0.24,1.71,-0.04,-0.14,1.03,1000
17:08:24.893,-7.33,1.16,-64.16,0.06,-1.04,1.16,-0.02,-0.13,1.04,1000
17:08:24.901,-7.35,1.16,-64.15,-0.67,-2.26,1.71,-0.01,-0.14,1.03,1000
17:08:24.915,-7.37,1.13,-64.13,-0.43,-3.17,2.2,-0.02,-0.13,1.02,1000
17:08:24.924,-7.38,1.09,-64.1,-0.49,-3.29,2.01,-0.02,-0.13,1.03,1000
17:08:24.933,-7.38,1.05,-64.08,-0.61,-3.35,1.95,-0.02,-0.13,1.03,1000
17:08:24.945,-7.38,1.01,-64.06,-0.37,-2.62,2.07,-0.0,-0.12,1.03,1000
17:08:24.955,-7.35,0.94,-64.04,-0.3,-1.22,2.56,0.01,-0.13,1.02,1000
17:08:24.966,-7.34,0.85,-64.01,0.3,0.55,2.56,-0.01,-0.13,1.01,1000
17:08:24.979,-7.31,0.83,-63.99,0.55,2.07,1.1,-0.02,-0.11,1.03,1000
17:08:24.990,-7.26,0.85,-63.98,0.43,2.68,-0.18,-0.02,-0.12,1.02,1000
17:08:25.004,-7.22,0.88,-63.99,0.24,2.07,-1.1,-0.01,-0.12,1.03,1000
17:08:25.013,-7.18,0.88,-64.0,0.0,0.67,-0.79,-0.0,-0.12,1.02,1000
17:08:25.021,-7.17,0.84,-64.01,0.06,-0.43,-0.49,-0.01,-0.15,1.03,1000
17:08:25.032,-7.18,0.81,-64.01,0.12,-0.91,-0.55,-0.01,-0.13,1.03,1000
17:08:25.043,-7.19,0.78,-64.02,-0.18,-0.98,-0.85,-0.01,-0.13,1.04,1000
17:08:25.054,-7.2,0.77,-64.03,0.43,-0.91,-1.59,-0.02,-0.13,1.02,1000
17:08:25.067,-7.19,0.78,-64.05,0.91,-0.73,-2.56,-0.02,-0.12,1.04,1000
17:08:25.077,-7.15,0.8,-64.08,1.59,-0.49,-2.93,-0.02,-0.13,1.03,1000
17:08:25.087,-7.12,0.81,-64.11,2.56,-0.06,-2.68,-0.01,-0.13,1.03,1000
17:08:25.114,-7.08,0.81,-64.14,3.11,0.37,-1.95,0.0,-0.13,1.02,1000
17:08:25.114,-7.05,0.78,-64.16,3.35,1.46,-0.73,-0.0,-0.13,1.02,1000
17:08:25.120,-7.02,0.77,-64.17,3.9,2.5,-1.04,-0.02,-0.14,1.01,1000
17:08:25.131,-6.99,0.83,-64.18,3.41,2.8,-2.56,-0.04,-0.12,1.03,1000
17:08:25.142,-6.95,0.92,-64.22,2.44,2.26,-3.23,-0.02,-0.12,1.02,1000
17:08:25.155,-6.91,0.95,-64.25,1.65,1.22,-2.13,-0.0,-0.12,1.02,1000
17:08:25.164,-6.89,0.94,-64.27,1.16,0.18,-1.28,-0.01,-0.12,1.01,1000
17:08:25.177,-6.87,0.93,-64.28,1.04,0.12,-1.28,-0.03,-0.13,1.01,1000
17:08:25.187,-6.86,0.96,-64.3,0.18,0.79,-2.62,-0.04,-0.12,1.02,1000
17:08:25.198,-6.85,1.04,-64.34,-0.43,0.91,-3.6,-0.03,-0.12,1.02,1000
17:08:25.211,-6.85,1.09,-64.38,-1.22,1.1,-3.35,-0.01,-0.13,1.02,1000
17:08:25.221,-6.87,1.11,-64.41,-1.65,1.22,-1.95,-0.01,-0.13,1.02,1000
17:08:25.230,-6.89,1.09,-64.42,-1.77,1.34,-1.04,-0.02,-0.13,1.02,1000
17:08:25.241,-6.92,1.11,-64.43,-1.83,1.89,-1.1,-0.03,-0.13,1.02,1000
17:08:25.254,-6.95,1.14,-64.45,-1.95,2.13,-1.22,-0.02,-0.13,1.03,1000
17:08:25.263,-6.98,1.2,-64.46,-1.83,1.83,-1.89,-0.04,-0.12,1.03,1000
17:08:25.279,-6.98,1.27,-64.48,-0.85,0.61,-2.01,-0.03,-0.12,1.03,1000
17:08:25.288,-6.97,1.31,-64.5,-0.18,-0.98,-1.34,-0.02,-0.14,1.03,1000
17:08:25.297,-6.97,1.3,-64.51,0.73,-2.2,0.06,-0.02,-0.13,1.03,1000
17:08:25.313,-6.98,1.27,-64.51,1.04,-2.44,0.73,-0.02,-0.13,1.04,1000
17:08:25.319,-6.98,1.25,-64.5,1.46,-1.77,1.22,-0.02,-0.13,1.03,1000
17:08:25.329,-6.99,1.23,-64.48,1.52,-0.12,1.34,-0.03,-0.13,1.03,1000
17:08:25.340,-6.98,1.25,-64.47,1.77,0.91,0.98,-0.03,-0.13,1.02,1000
17:08:25.352,-6.96,1.3,-64.46,2.26,1.04,-0.12,-0.04,-0.12,1.03,1000
17:08:25.362,-6.92,1.35,-64.46,2.38,0.24,-0.18,-0.03,-0.12,1.03,1000
17:08:25.374,-6.88,1.37,-64.46,2.2,-0.98,1.22,-0.01,-0.12,1.03,1000
17:08:25.384,-6.86,1.33,-64.44,2.13,-1.34,2.13,-0.02,-0.11,1.01,1000
17:08:25.399,-6.82,1.29,-64.41,2.2,-1.16,2.93,-0.01,-0.12,1.03,1000
17:08:25.408,-6.79,1.25,-64.38,1.95,0.0,2.8,-0.02,-0.13,1.01,1000
17:08:25.418,-6.78,1.25,-64.36,1.28,1.16,1.4,-0.03,-0.12,1.03,1000
17:08:25.429,-6.75,1.28,-64.35,0.3,1.65,0.37,-0.01,-0.12,1.02,1000
17:08:25.439,-6.74,1.27,-64.34,0.12,1.4,0.49,-0.01,-0.12,1.02,1000
17:08:25.450,-6.75,1.25,-64.34,0.91,0.79,-0.06,-0.03,-0.13,1.01,1000
17:08:25.462,-6.73,1.27,-64.35,1.46,-0.49,-1.65,-0.04,-0.11,1.03,1000
17:08:25.472,-6.69,1.29,-64.37,2.2,-1.89,-1.89,-0.02,-0.12,1.03,1000
17:08:25.484,-6.66,1.26,-64.38,2.74,-2.87,-0.73,-0.0,-0.12,1.03,1000
17:08:25.533,-6.62,1.19,-64.39,3.11,-2.68,0.24,-0.01,-0.12,1.01,1000
17:08:25.534,-6.6,1.12,-64.38,3.11,-1.28,0.37,-0.02,-0.12,1.02,1000
17:08:25.534,-6.57,1.09,-64.38,2.99,-0.18,-0.49,-0.04,-0.11,1.0,1000
17:08:25.546,-6.51,1.14,-64.39,2.74,0.18,-2.13,-0.05,-0.11,1.02,1000
17:08:25.547,-6.45,1.21,-64.42,2.13,-0.67,-2.56,-0.02,-0.11,1.02,1000
17:08:25.549,-6.41,1.21,-64.44,0.85,-1.16,-1.1,-0.01,-0.11,1.02,1000
17:08:25.560,-6.39,1.16,-64.45,0.12,-1.28,0.67,0.0,-0.13,1.01,1000
17:08:25.575,-6.42,1.08,-64.43,-0.73,-0.73,1.77,-0.01,-0.12,1.02,1000
17:08:25.589,-6.45,1.04,-64.41,-1.1,0.12,1.52,-0.02,-0.12,1.0,1000
17:08:25.596,-6.49,1.05,-64.41,-1.46,0.37,0.0,-0.03,-0.11,1.02,1000
17:08:25.604,-6.49,1.08,-64.41,-1.59,0.18,-0.85,-0.01,-0.11,1.01,1000
17:08:25.621,-6.49,1.07,-64.42,-0.91,-0.37,-0.43,-0.01,-0.12,1.02,1000
17:08:25.627,-6.5,1.02,-64.42,-0.06,-0.43,-0.06,-0.01,-0.11,1.01,1000
17:08:25.637,-6.49,0.98,-64.42,0.3,0.67,-0.12,-0.01,-0.12,1.02,1000
17:08:25.649,-6.51,0.97,-64.42,0.18,1.89,-0.79,-0.03,-0.12,1.0,1000
17:08:25.659,-6.52,1.04,-64.44,-0.12,2.62,-2.8,-0.05,-0.11,1.01,1000
17:08:25.670,-6.49,1.17,-64.48,-1.1,1.65,-4.45,-0.05,-0.1,1.02,1000
17:08:25.681,-6.46,1.26,-64.53,-2.13,-0.61,-4.15,-0.02,-0.12,1.02,1000
17:08:25.696,-6.48,1.26,-64.56,-3.35,-2.74,-2.01,-0.01,-0.12,1.03,1000
17:08:25.704,-6.53,1.21,-64.58,-4.27,-3.23,-0.12,-0.0,-0.13,1.03,1000
17:08:25.715,-6.61,1.13,-64.57,-4.63,-2.74,1.16,-0.01,-0.13,1.02,1000
17:08:25.729,-6.69,1.1,-64.56,-4.15,-1.59,0.79,-0.04,-0.12,1.03,1000
17:08:25.736,-6.73,1.14,-64.55,-2.93,-1.52,-0.12,-0.04,-0.12,1.03,1000
17:08:25.747,-6.74,1.18,-64.55,-1.65,-2.8,0.0,-0.03,-0.12,1.04,1000
17:08:25.760,-6.72,1.18,-64.55,0.49,-4.51,1.77,0.0,-0.13,1.03,1000
17:08:25.769,-6.68,1.08,-64.51,1.52,-4.63,4.27,0.02,-0.1,1.04,1000
17:08:25.780,-6.62,0.94,-64.46,2.62,-3.17,5.85,-0.0,-0.12,1.01,1000
17:08:25.792,-6.59,0.84,-64.39,2.8,-0.3,5.91,0.01,-0.12,1.02,1000
17:08:25.802,-6.55,0.78,-64.33,1.52,2.87,4.88,-0.02,-0.11,1.0,1000
17:08:25.815,-6.5,0.8,-64.29,-0.37,4.45,2.68,-0.01,-0.1,1.01,1000
17:08:25.825,-6.44,0.81,-64.27,-2.99,5.18,1.04,0.01,-0.1,1.0,1000
17:08:25.835,-6.43,0.81,-64.26,-5.67,5.37,0.3,0.0,-0.11,1.0,1000
17:08:25.847,-6.48,0.8,-64.27,-6.71,4.39,-1.28,-0.02,-0.13,0.99,1000
17:08:25.857,-6.57,0.86,-64.3,-8.05,2.56,-4.63,-0.05,-0.12,1.03,1000
17:08:25.868,-6.66,0.97,-64.36,-8.84,0.12,-7.5,-0.04,-0.12,1.02,1000
17:08:25.879,-6.75,1.05,-64.45,-7.74,-2.87,-8.78,-0.05,-0.13,1.04,1000
17:08:25.894,-6.84,1.11,-64.55,-6.22,-6.22,-8.78,-0.02,-0.11,1.04,1000
17:08:25.913,-6.88,1.05,-64.64,-4.27,-8.29,-6.52,0.0,-0.13,1.05,1000
17:08:25.913,-6.92,0.94,-64.69,-1.83,-8.11,-3.35,0.01,-0.14,1.04,1000
17:08:25.928,-6.93,0.79,-64.72,0.24,-5.43,-0.49,0.01,-0.12,1.04,1000
17:08:25.934,-6.92,0.66,-64.71,2.07,-1.28,0.67,-0.01,-0.13,1.03,1000
17:08:25.947,-6.88,0.65,-64.71,3.17,2.93,0.18,-0.02,-0.1,1.03,1000
17:08:25.956,-6.8,0.71,-64.71,3.78,5.43,-0.79,-0.03,-0.12,1.02,1000
17:08:25.968,-6.75,0.85,-64.73,3.35,5.24,-2.13,-0.05,-0.12,1.04,1000
17:08:25.980,-6.68,0.97,-64.75,2.74,2.32,-1.77,-0.02,-0.12,1.04,1000
17:08:25.990,-6.64,1.0,-64.76,2.13,-1.04,0.67,-0.0,-0.13,1.05,1000
17:08:26.002,-6.62,0.96,-64.74,1.59,-3.11,3.05,0.01,-0.13,1.03,1000
17:08:26.012,-6.62,0.87,-64.7,0.67,-2.99,4.39,0.01,-0.13,1.04,1000
17:08:26.030,-6.64,0.77,-64.65,-0.49,-0.79,3.11,-0.01,-0.12,1.01,1000
17:08:26.038,-6.66,0.74,-64.63,-1.34,2.26,0.98,-0.01,-0.11,1.02,1000
17:08:26.045,-6.67,0.77,-64.64,-2.93,5.43,-2.32,-0.02,-0.13,1.0,1000
17:08:26.055,-6.7,0.87,-64.68,-2.74,6.65,-5.91,-0.05,-0.11,1.02,1000
17:08:26.066,-6.69,1.04,-64.76,-2.74,5.67,-8.48,-0.04,-0.09,1.02,1000
17:08:26.078,-6.65,1.19,-64.86,-2.2,2.87,-9.09,-0.06,-0.12,1.02,1000
17:08:26.088,-6.61,1.36,-64.96,0.06,-2.44,-10.43,-0.11,-0.12,1.02,1000
17:08:26.100,-6.54,1.58,-65.08,2.44,-9.7,-10.3,-0.08,-0.09,1.07,1000
17:08:26.110,-6.45,1.65,-65.18,5.37,-16.95,-6.89,-0.05,-0.13,1.06,1000
17:08:26.122,-6.41,1.59,-65.23,7.99,-22.07,-1.71,-0.03,-0.14,1.08,1000
17:08:26.132,-6.34,1.36,-65.22,10.55,-24.39,4.45,0.01,-0.13,1.05,1000
17:08:26.143,-6.29,1.05,-65.14,12.32,-21.71,9.21,0.03,-0.16,1.05,1000
17:08:26.154,-6.29,0.69,-65.03,12.87,-15.37,12.44,0.03,-0.14,1.02,1000
17:08:26.165,-6.24,0.42,-64.89,12.01,-7.68,12.5,0.01,-0.12,1.01,1000
17:08:26.177,-6.17,0.27,-64.76,9.7,-0.67,11.04,0.03,-0.09,1.0,1000
17:08:26.190,-6.08,0.18,-64.64,6.4,4.45,9.63,0.01,-0.1,0.99,1000
17:08:26.201,-6.0,0.18,-64.55,2.56,6.16,7.32,0.0,-0.07,0.99,1000
17:08:26.212,-5.9,0.18,-64.48,-1.89,4.39,5.55,0.01,-0.06,0.99,1000
17:08:26.224,-5.84,0.16,-64.42,-5.24,0.79,4.39,-0.0,-0.09,0.98,1000
17:08:26.236,-5.83,0.12,-64.38,-8.29,-3.72,3.05,0.01,-0.07,1.0,1000
17:08:26.244,-5.82,0.03,-64.35,-9.7,-7.99,1.22,-0.02,-0.08,0.98,1000
17:08:26.253,-5.81,-0.02,-64.35,-10.3,-10.73,-0.98,-0.01,-0.07,1.01,1000
17:08:26.267,-5.81,-0.11,-64.37,-10.79,-11.4,-1.77,0.02,-0.09,1.01,1000
17:08:26.280,-5.86,-0.25,-64.39,-10.12,-8.9,-2.01,0.02,-0.1,1.0,1000
17:08:26.287,-5.93,-0.37,-64.41,-8.84,-4.33,-2.8,0.02,-0.1,1.0,1000
17:08:26.303,-6.0,-0.41,-64.45,-7.74,2.87,-4.39,0.01,-0.14,1.0,1000
17:08:26.313,-6.12,-0.33,-64.51,-5.79,8.78,-7.93,-0.07,-0.13,1.01,1000
17:08:26.319,-6.22,-0.04,-64.62,-4.27,12.07,-12.26,-0.06,-0.12,1.04,1000
17:08:26.332,-6.29,0.29,-64.76,-3.48,12.8,-12.87,-0.03,-0.13,1.04,1000
17:08:26.342,-6.37,0.57,-64.89,-1.34,12.07,-11.4,-0.04,-0.13,1.02,1000
17:08:26.352,-6.44,0.83,-65.01,0.55,9.51,-10.0,-0.07,-0.13,1.04,1000
17:08:26.363,-6.5,1.13,-65.12,1.04,6.65,-9.39,-0.07,-0.14,1.03,1000
17:08:26.379,-6.57,1.41,-65.22,-0.24,3.35,-8.66,-0.07,-0.14,1.04,1000
17:08:26.385,-6.64,1.6,-65.31,-3.05,0.79,-7.44,-0.05,-0.14,1.03,1000
17:08:26.398,-6.77,1.75,-65.38,-5.43,-1.52,-5.55,-0.05,-0.16,1.02,1000
17:08:26.407,-6.95,1.83,-65.44,-6.22,-4.51,-3.96,-0.06,-0.16,1.01,1000
17:08:26.419,-7.15,1.91,-65.47,-6.95,-7.32,-2.74,-0.05,-0.15,1.04,1000
17:08:26.449,-7.34,1.88,-65.49,-7.5,-9.09,1.4,-0.0,-0.18,1.04,1000
17:08:26.449,-7.59,1.71,-65.45,-6.34,-9.02,6.4,0.02,-0.18,1.04,1000
17:08:26.451,-7.79,1.51,-65.36,-4.21,-8.17,10.24,0.01,-0.17,1.03,1000
17:08:26.462,-7.93,1.33,-65.23,-0.06,-5.91,11.83,-0.02,-0.15,1.04,1000
17:08:26.474,-7.96,1.23,-65.09,2.68,-3.23,12.26,-0.0,-0.14,1.04,1000
17:08:26.484,-7.95,1.15,-64.96,4.15,0.73,12.56,0.02,-0.15,1.05,1000
17:08:26.495,-7.91,1.05,-64.82,5.37,3.6,12.68,0.02,-0.15,1.03,1000
17:08:26.506,-7.87,1.01,-64.68,7.93,4.7,11.4,-0.02,-0.14,1.02,1000
17:08:26.517,-7.78,1.01,-64.57,10.61,3.54,9.21,-0.0,-0.13,1.01,1000
17:08:26.531,-7.62,0.97,-64.47,10.18,1.65,9.7,0.05,-0.12,1.03,1000
17:08:26.540,-7.48,0.8,-64.36,9.21,0.73,10.85,0.05,-0.13,0.99,1000
17:08:26.550,-7.39,0.62,-64.24,7.56,0.98,10.37,0.05,-0.12,1.0,1000
17:08:26.561,-7.31,0.39,-64.13,4.45,2.01,9.27,0.04,-0.12,0.98,1000
17:08:26.575,-7.27,0.21,-64.04,1.1,2.38,6.34,0.02,-0.12,0.99,1000
17:08:26.584,-7.26,0.1,-63.99,-3.35,2.8,3.05,0.04,-0.12,0.99,1000
17:08:26.594,-7.3,-0.03,-63.97,-7.38,3.48,0.55,0.05,-0.14,0.99,1000
17:08:26.609,-7.41,-0.18,-63.97,-9.76,3.84,-1.4,0.04,-0.13,0.99,1000
17:08:26.616,-7.53,-0.3,-64.0,-10.37,2.93,-3.05,0.04,-0.12,1.0,1000
17:08:26.627,-7.63,-0.45,-64.03,-10.06,1.52,-3.9,0.05,-0.13,1.0,1000
17:08:26.652,-7.72,-0.63,-64.08,-8.35,0.49,-3.66,0.06,-0.14,1.0,1000
17:08:26.653,-7.79,-0.8,-64.12,-6.16,-0.85,-3.78,0.02,-0.13,1.01,1000
17:08:26.660,-7.82,-0.9,-64.16,-3.48,-2.5,-4.45,0.02,-0.13,1.01,1000
17:08:26.671,-7.81,-1.0,-64.21,-1.59,-4.33,-4.09,0.04,-0.13,1.03,1000
17:08:26.683,-7.77,-1.16,-64.25,-0.73,-5.98,-1.89,0.06,-0.13,1.02,1000
17:08:26.697,-7.74,-1.36,-64.25,-0.43,-6.22,0.85,0.07,-0.13,1.02,1000
17:08:26.707,-7.69,-1.6,-64.23,-0.12,-5.18,2.68,0.05,-0.12,1.0,1000
17:08:26.715,-7.66,-1.76,-64.2,-0.61,-3.66,3.23,0.06,-0.12,1.0,1000
17:08:26.728,-7.61,-1.91,-64.17,-1.46,-1.34,2.44,0.03,-0.12,0.99,1000
17:08:26.737,-7.59,-1.97,-64.15,-3.35,0.67,0.61,0.03,-0.11,1.0,1000
17:08:26.749,-7.55,-1.99,-64.15,-6.65,1.77,-1.28,0.04,-0.12,1.0,1000
17:08:26.759,-7.57,-2.0,-64.17,-9.63,2.56,-2.8,0.04,-0.12,1.0,1000
17:08:26.772,-7.63,-2.02,-64.21,-11.59,2.2,-4.15,0.03,-0.14,0.99,1000
17:08:26.782,-7.75,-2.0,-64.27,-13.11,0.55,-7.13,-0.01,-0.13,1.01,1000
17:08:26.800,-7.85,-1.92,-64.36,-13.6,-1.46,-9.76,0.01,-0.12,1.01,1000
17:08:26.804,-7.95,-1.9,-64.46,-13.6,-2.99,-10.37,0.03,-0.14,1.02,1000
17:08:26.823,-8.07,-1.93,-64.59,-12.8,-3.84,-9.45,0.04,-0.14,1.02,1000
17:08:26.826,-8.16,-1.99,-64.68,-11.59,-3.29,-8.9,0.04,-0.14,1.02,1000
17:08:26.838,-8.27,-2.04,-64.78,-10.73,-1.28,-8.17,0.04,-0.16,1.03,1000
17:08:26.859,-8.37,-2.07,-64.87,-10.0,1.83,-7.87,0.04,-0.15,1.03,1000
17:08:26.860,-8.46,-2.05,-64.96,-10.18,4.88,-8.29,0.03,-0.14,1.04,1000
17:08:26.870,-8.5,-1.98,-65.05,-9.94,6.83,-8.78,0.03,-0.12,1.03,1000
17:08:26.882,-8.52,-1.91,-65.15,-9.88,7.44,-8.84,0.04,-0.14,1.03,1000
17:08:26.892,-8.55,-1.84,-65.24,-9.94,7.68,-9.02,0.02,-0.15,1.03,1000
17:08:26.902,-8.61,-1.74,-65.35,-10.24,7.01,-10.37,-0.0,-0.15,1.04,1000
17:08:26.917,-8.67,-1.56,-65.47,-10.73,5.85,-12.93,-0.03,-0.15,1.05,1000
17:08:26.926,-8.75,-1.38,-65.63,-10.67,4.45,-14.88,-0.01,-0.16,1.06,1000
17:08:26.936,-8.84,-1.23,-65.79,-9.94,3.29,-15.43,-0.0,-0.18,1.05,1000
17:08:26.952,-8.96,-1.09,-65.97,-7.8,2.26,-16.28,-0.03,-0.18,1.05,1000
17:08:26.959,-9.05,-0.92,-66.15,-5.0,1.52,-17.07,-0.03,-0.18,1.04,1000
17:08:26.969,-9.12,-0.73,-66.34,-2.2,0.18,-17.99,-0.05,-0.18,1.05,1000
17:08:26.980,-9.16,-0.57,-66.54,-0.3,-1.28,-17.74,-0.03,-0.16,1.05,1000
17:08:26.990,-9.16,-0.42,-66.73,2.26,-2.13,-15.91,-0.04,-0.18,1.03,1000
17:08:27.001,-9.13,-0.24,-66.9,4.39,-3.23,-15.12,-0.06,-0.15,1.03,1000
17:08:27.013,-9.02,-0.04,-67.06,5.67,-4.27,-13.72,-0.04,-0.14,1.03,1000
17:08:27.025,-8.91,0.06,-67.18,6.16,-4.21,-10.91,-0.02,-0.16,1.02,1000
17:08:27.036,-8.8,0.14,-67.29,6.16,-3.05,-7.44,-0.02,-0.15,1.0,1000
17:08:27.052,-8.7,0.21,-67.36,4.76,-1.16,-4.94,-0.02,-0.14,1.01,1000
17:08:27.062,-8.62,0.29,-67.41,1.59,1.46,-2.62,-0.01,-0.15,1.0,1000
17:08:27.067,-8.6,0.37,-67.43,-2.13,3.66,-0.98,-0.01,-0.15,1.0,1000
17:08:27.079,-8.64,0.45,-67.43,-5.67,5.3,0.61,-0.02,-0.16,1.0,1000
17:08:27.089,-8.71,0.55,-67.42,-8.78,5.98,1.1,-0.02,-0.16,1.01,1000
17:08:27.100,-8.82,0.65,-67.41,-10.73,5.67,1.1,-0.02,-0.15,1.01,1000
17:08:27.111,-8.93,0.74,-67.4,-11.4,4.51,0.67,-0.01,-0.16,1.02,1000
17:08:27.123,-9.06,0.78,-67.39,-11.77,3.54,0.85,0.0,-0.18,1.03,1000
17:08:27.134,-9.23,0.79,-67.38,-10.91,3.35,0.79,-0.0,-0.19,1.04,1000
17:08:27.146,-9.4,0.79,-67.37,-9.09,3.9,0.43,0.01,-0.2,1.04,1000
17:08:27.156,-9.57,0.78,-67.37,-6.77,4.94,-0.18,-0.0,-0.2,1.05,1000
17:08:27.167,-9.71,0.79,-67.38,-3.78,5.61,-1.59,-0.01,-0.2,1.04,1000
17:08:27.177,-9.82,0.82,-67.41,-0.61,6.4,-3.66,-0.01,-0.2,1.06,1000
17:08:27.190,-9.87,0.86,-67.45,2.44,7.13,-5.12,-0.01,-0.2,1.04,1000
17:08:27.200,-9.9,0.93,-67.52,4.57,7.44,-6.77,-0.02,-0.19,1.04,1000
17:08:27.211,-9.88,1.02,-67.6,5.43,7.44,-8.41,-0.03,-0.19,1.04,1000
17:08:27.225,-9.87,1.15,-67.7,6.16,6.95,-10.0,-0.06,-0.19,1.03,1000
17:08:27.233,-9.86,1.36,-67.83,5.67,5.67,-12.5,-0.08,-0.18,1.04,1000
17:08:27.248,-9.81,1.56,-67.97,4.09,3.96,-13.23,-0.05,-0.18,1.04,1000
17:08:27.257,-9.78,1.71,-68.11,2.8,2.26,-12.2,-0.06,-0.19,1.04,1000
17:08:27.272,-9.78,1.84,-68.24,2.01,0.49,-11.04,-0.07,-0.18,1.04,1000
17:08:27.277,-9.77,1.97,-68.36,1.04,-1.1,-10.18,-0.07,-0.18,1.04,1000
17:08:27.290,-9.76,2.1,-68.46,0.67,-2.32,-8.35,-0.07,-0.18,1.03,1000
17:08:27.299,-9.76,2.21,-68.55,0.85,-3.35,-6.52,-0.08,-0.18,1.02,1000
17:08:27.310,-9.75,2.35,-68.61,1.52,-4.82,-4.82,-0.08,-0.17,1.03,1000
17:08:27.321,-9.7,2.45,-68.65,1.83,-6.04,-2.07,-0.06,-0.17,1.02,1000
17:08:27.332,-9.66,2.51,-68.66,3.9,-8.11,0.43,-0.1,-0.17,1.01,1000
17:08:27.344,-9.58,2.6,-68.65,5.55,-11.28,2.44,-0.08,-0.14,1.04,1000
17:08:27.359,-9.44,2.62,-68.6,6.16,-14.27,6.16,-0.06,-0.16,1.03,1000
17:08:27.366,-9.32,2.55,-68.51,7.07,-16.1,11.04,-0.02,-0.16,1.03,1000
17:08:27.375,-9.2,2.37,-68.36,8.23,-17.07,16.34,-0.02,-0.17,1.03,1000
17:08:27.387,-9.09,2.14,-68.16,8.11,-16.16,19.7,0.01,-0.14,1.02,1000
17:08:27.397,-8.94,1.84,-67.93,7.07,-13.41,22.68,0.03,-0.15,1.01,1000
17:08:27.410,-8.83,1.52,-67.68,5.49,-9.33,23.11,0.02,-0.16,1.01,1000
17:08:27.420,-8.74,1.28,-67.44,3.96,-5.18,21.1,0.02,-0.14,1.0,1000
17:08:27.431,-8.66,1.1,-67.22,1.83,-1.4,17.56,0.01,-0.14,1.01,1000
17:08:27.442,-8.6,0.98,-67.05,-0.55,0.61,13.17,0.02,-0.14,1.01,1000
17:08:27.453,-8.56,0.86,-66.92,-2.99,1.65,9.33,0.03,-0.15,1.02,1000
17:08:27.464,-8.57,0.73,-66.84,-4.51,1.34,6.22,0.03,-0.15,1.0,1000
17:08:27.475,-8.59,0.58,-66.78,-4.45,0.55,2.8,0.02,-0.15,1.0,1000
17:08:27.486,-8.62,0.45,-66.77,-4.09,-0.18,-0.79,0.03,-0.17,1.0,1000
17:08:27.496,-8.7,0.3,-66.79,-2.93,-0.91,-3.41,0.03,-0.18,1.0,1000
17:08:27.509,-8.81,0.17,-66.84,-1.71,-1.22,-6.59,0.01,-0.17,1.01,1000
17:08:27.518,-8.86,0.09,-66.93,-0.85,-1.46,-9.02,0.01,-0.16,1.01,1000
17:08:27.532,-8.9,0.04,-67.03,1.16,-2.44,-11.28,-0.02,-0.18,1.0,1000
17:08:27.541,-8.92,0.01,-67.18,3.6,-4.21,-12.74,0.01,-0.16,1.02,1000
17:08:27.555,-8.89,-0.07,-67.31,4.02,-5.37,-10.61,0.05,-0.17,1.03,1000
17:08:27.566,-8.88,-0.25,-67.41,4.7,-4.94,-6.59,0.06,-0.19,1.0,1000
17:08:27.575,-8.91,-0.47,-67.46,5.55,-3.84,-2.93,0.05,-0.18,1.02,1000
17:08:27.585,-8.92,-0.66,-67.48,5.37,-1.34,-0.91,0.04,-0.17,1.01,1000
17:08:27.595,-8.92,-0.77,-67.49,4.88,1.77,-0.91,0.01,-0.16,1.0,1000
17:08:27.608,-8.88,-0.73,-67.51,3.96,3.41,-4.09,-0.04,-0.14,1.01,1000
17:08:27.617,-8.8,-0.57,-67.58,2.07,3.84,-7.32,-0.02,-0.13,1.02,1000
17:08:27.628,-8.72,-0.44,-67.66,-0.24,2.32,-7.87,0.0,-0.15,1.02,1000
17:08:27.640,-8.68,-0.39,-67.75,-1.28,-0.3,-6.59,0.02,-0.15,1.02,1000
17:08:27.651,-8.66,-0.43,-67.81,-2.07,-3.11,-4.94,0.01,-0.15,1.02,1000
17:08:27.676,-8.64,-0.48,-67.86,-2.32,-5.06,-3.9,0.01,-0.15,1.02,1000
17:08:27.678,-8.64,-0.55,-67.9,-2.44,-5.91,-2.93,0.02,-0.16,1.03,1000
17:08:27.684,-8.65,-0.62,-67.93,-2.74,-5.98,-2.44,0.01,-0.15,1.04,1000
17:08:27.694,-8.67,-0.7,-67.96,-3.23,-5.18,-1.89,0.02,-0.16,1.04,1000
17:08:27.705,-8.7,-0.77,-67.97,-3.66,-3.72,-1.52,0.02,-0.17,1.05,1000
17:08:27.716,-8.75,-0.82,-67.99,-3.41,-2.07,-1.28,0.01,-0.16,1.04,1000
17:08:27.731,-8.78,-0.85,-68.0,-2.13,-1.22,-1.1,0.01,-0.16,1.04,1000
17:08:27.739,-8.79,-0.86,-68.01,-0.12,-1.16,-0.85,0.02,-0.17,1.04,1000
17:08:27.750,-8.8,-0.9,-68.02,1.95,-1.16,0.3,0.03,-0.18,1.05,1000
17:08:27.760,-8.81,-0.96,-68.01,4.21,-1.16,1.52,0.03,-0.18,1.04,1000
17:08:27.776,-8.82,-1.01,-67.98,6.04,-1.28,2.5,0.02,-0.18,1.04,1000
17:08:27.786,-8.81,-1.05,-67.96,8.6,-2.74,2.07,-0.01,-0.17,1.02,1000
17:08:27.794,-8.75,-1.07,-67.94,10.55,-5.0,0.12,-0.01,-0.15,1.04,1000
17:08:27.807,-8.64,-1.09,-67.94,12.01,-7.5,-0.61,0.01,-0.16,1.02,1000
17:08:27.815,-8.55,-1.13,-67.95,13.35,-8.84,-0.79,0.01,-0.17,1.02,1000
17:08:27.826,-8.43,-1.2,-67.96,13.23,-9.39,-0.43,0.05,-0.14,1.02,1000
17:08:27.839,-8.3,-1.32,-67.96,12.38,-8.48,1.16,0.05,-0.16,1.01,1000
17:08:27.850,-8.19,-1.5,-67.94,10.98,-5.98,2.56,0.05,-0.15,0.98,1000
17:08:27.862,-8.09,-1.62,-67.91,9.27,-3.17,2.01,0.02,-0.12,0.99,1000
17:08:27.874,-7.97,-1.65,-67.9,7.87,-1.4,-0.43,-0.01,-0.13,0.96,1000
17:08:27.882,-7.85,-1.54,-67.93,5.85,-0.98,-4.45,-0.03,-0.11,1.01,1000
17:08:27.892,-7.7,-1.4,-67.99,3.23,-2.07,-6.22,0.01,-0.11,1.0,1000
17:08:27.905,-7.6,-1.35,-68.05,0.91,-3.05,-5.37,0.03,-0.13,1.01,1000
17:08:27.919,-7.57,-1.39,-68.1,-0.73,-4.33,-2.93,0.04,-0.14,1.0,1000
17:08:27.925,-7.59,-1.48,-68.12,-1.83,-4.88,-0.61,0.04,-0.15,1.01,1000
17:08:27.936,-7.66,-1.57,-68.12,-2.87,-4.63,1.16,0.04,-0.14,0.99,1000
17:08:27.947,-7.72,-1.64,-68.1,-3.11,-3.48,1.22,0.02,-0.13,1.01,1000
17:08:27.960,-7.75,-1.67,-68.09,-3.54,-2.07,0.79,0.03,-0.13,1.0,1000
17:08:27.987,-7.76,-1.68,-68.09,-2.93,-0.55,-0.43,0.01,-0.13,1.0,1000
17:08:27.987,-7.77,-1.64,-68.1,-2.44,0.37,-1.89,0.02,-0.13,1.01,1000
17:08:27.991,-7.77,-1.6,-68.12,-2.01,0.49,-2.32,0.03,-0.14,1.01,1000
17:08:28.008,-7.8,-1.57,-68.15,-1.28,0.18,-1.95,0.02,-0.14,1.01,1000
17:08:28.014,-7.82,-1.56,-68.16,-0.98,-0.61,-0.85,0.03,-0.15,1.01,1000
17:08:28.024,-7.85,-1.56,-68.17,-0.98,-1.89,0.12,0.02,-0.15,1.02,1000
17:08:28.035,-7.88,-1.57,-68.16,-0.91,-2.87,1.59,0.03,-0.14,1.02,1000
17:08:28.048,-7.91,-1.61,-68.14,-0.43,-3.84,3.05,0.03,-0.16,1.01,1000
17:08:28.060,-7.95,-1.64,-68.1,0.0,-4.09,3.6,0.02,-0.14,1.02,1000
17:08:28.084,-7.96,-1.64,-68.06,0.06,-4.21,3.48,0.02,-0.14,1.02,1000
17:08:28.085,-7.97,-1.62,-68.02,1.71,-4.7,3.35,-0.01,-0.15,1.0,1000
17:08:28.091,-7.95,-1.57,-67.99,3.23,-6.4,2.38,-0.01,-0.13,1.04,1000
17:08:28.101,-7.87,-1.54,-67.95,3.6,-8.23,4.09,0.04,-0.14,1.03,1000
17:08:28.112,-7.83,-1.63,-67.89,4.76,-8.9,7.74,0.06,-0.15,1.03,1000
17:08:28.125,-7.82,-1.81,-67.78,5.37,-8.48,11.83,0.07,-0.15,1.02,1000
17:08:28.134,-7.79,-2.0,-67.64,5.85,-5.73,14.45,0.05,-0.15,1.01,1000
17:08:28.148,-7.76,-2.1,-67.48,5.55,-2.38,14.09,0.04,-0.14,1.02,1000
17:08:28.156,-7.72,-2.15,-67.33,4.63,0.67,13.11,0.04,-0.14,1.01,1000
17:08:28.170,-7.69,-2.14,-67.19,3.35,2.62,11.16,0.04,-0.14,1.01,1000
17:08:28.180,-7.66,-2.12,-67.08,1.28,3.05,8.96,0.04,-0.12,1.02,1000
17:08:28.190,-7.62,-2.1,-66.99,-0.73,1.95,7.56,0.04,-0.13,1.02,1000
17:08:28.203,-7.6,-2.12,-66.91,-2.26,-0.43,6.1,0.05,-0.13,1.02,1000
17:08:28.212,-7.61,-2.16,-66.85,-3.54,-2.13,4.27,0.05,-0.14,1.02,1000
17:08:28.225,-7.65,-2.22,-66.81,-4.7,-3.17,2.62,0.05,-0.14,1.02,1000
17:08:28.233,-7.7,-2.27,-66.8,-4.27,-3.35,0.18,0.03,-0.14,1.0,1000
17:08:28.247,-7.74,-2.28,-66.81,-3.9,-3.35,-2.99,0.02,-0.12,1.03,1000
17:08:28.256,-7.73,-2.27,-66.85,-3.41,-3.9,-4.39,0.05,-0.13,1.02,1000
17:08:28.268,-7.74,-2.34,-66.9,-2.44,-3.84,-3.96,0.07,-0.15,1.03,1000
17:08:28.283,-7.76,-2.43,-66.94,-0.98,-3.17,-3.11,0.05,-0.14,1.02,1000
17:08:28.290,-7.78,-2.51,-66.97,0.12,-1.83,-2.93,0.05,-0.15,1.03,1000
17:08:28.299,-7.79,-2.53,-67.01,1.1,-0.98,-3.23,0.03,-0.14,1.02,1000
17:08:28.312,-7.76,-2.49,-67.04,2.56,-0.37,-3.6,0.02,-0.13,1.01,1000
17:08:28.321,-7.71,-2.43,-67.08,2.62,-1.16,-3.29,0.03,-0.15,1.03,1000
17:08:28.332,-7.68,-2.42,-67.11,2.44,-2.01,-1.34,0.06,-0.13,1.01,1000
17:08:28.351,-7.67,-2.47,-67.11,1.95,-2.56,1.4,0.06,-0.15,1.02,1000
17:08:28.354,-7.68,-2.52,-67.09,1.4,-2.2,3.11,0.05,-0.14,1.01,1000
17:08:28.367,-7.68,-2.57,-67.05,0.12,-1.16,3.6,0.05,-0.13,1.02,1000
17:08:28.377,-7.68,-2.58,-67.01,-1.16,0.24,3.66,0.04,-0.13,1.0,1000
17:08:28.390,-7.66,-2.57,-66.97,-2.07,1.34,3.48,0.05,-0.12,1.01,1000
17:08:28.399,-7.64,-2.57,-66.93,-3.17,2.07,3.29,0.06,-0.13,1.01,1000
17:08:28.410,-7.66,-2.58,-66.89,-4.09,2.56,3.29,0.06,-0.13,1.01,1000
17:08:28.421,-7.68,-2.6,-66.86,-4.63,2.87,2.56,0.05,-0.12,1.01,1000
17:08:28.431,-7.7,-2.6,-66.83,-4.63,3.17,1.65,0.04,-0.13,1.01,1000
17:08:28.442,-7.71,-2.55,-66.83,-3.78,2.8,-0.24,0.02,-0.13,1.01,1000
17:08:28.454,-7.7,-2.45,-66.84,-3.29,0.91,-2.32,0.01,-0.13,1.03,1000
17:08:28.469,-7.68,-2.36,-66.87,-2.68,-1.65,-3.29,0.03,-0.14,1.03,1000
17:08:28.477,-7.7,-2.33,-66.9,-2.56,-3.96,-2.32,0.05,-0.15,1.04,1000
17:08:28.494,-7.74,-2.39,-66.92,-2.01,-5.06,-0.3,0.07,-0.16,1.03,1000
17:08:28.499,-7.8,-2.48,-66.91,-0.91,-5.06,1.77,0.06,-0.16,1.03,1000
17:08:28.510,-7.84,-2.55,-66.89,0.43,-3.35,1.28,0.03,-0.14,1.04,1000
17:08:28.525,-7.83,-2.56,-66.88,1.28,-1.46,0.61,0.05,-0.14,1.03,1000
17:08:28.531,-7.82,-2.56,-66.87,1.89,0.73,0.79,0.05,-0.14,1.03,1000
17:08:28.541,-7.79,-2.56,-66.86,2.5,2.26,0.91,0.06,-0.14,1.02,1000
17:08:28.554,-7.75,-2.56,-66.84,2.62,3.35,1.65,0.05,-0.13,1.03,1000
17:08:28.564,-7.7,-2.54,-66.83,2.8,3.66,1.16,0.04,-0.13,1.01,1000
17:08:28.575,-7.63,-2.49,-66.82,2.38,3.41,0.0,0.02,-0.12,1.02,1000
17:08:28.589,-7.56,-2.4,-66.83,1.46,2.32,-1.04,0.03,-0.12,1.01,1000
17:08:28.597,-7.5,-2.35,-66.84,0.61,1.34,-1.89,0.03,-0.13,1.02,1000
17:08:28.607,-7.47,-2.27,-66.87,-0.18,-0.37,-3.54,0.01,-0.12,1.02,1000
17:08:28.618,-7.43,-2.21,-66.91,-0.73,-2.01,-4.02,0.04,-0.13,1.02,1000
17:08:28.629,-7.42,-2.21,-66.95,-1.71,-2.87,-3.05,0.05,-0.14,1.02,1000
17:08:28.640,-7.44,-2.26,-66.98,-1.59,-2.5,-1.83,0.05,-0.14,1.01,1000
17:08:28.651,-7.47,-2.32,-67.0,-1.65,-0.73,-1.22,0.05,-0.14,1.02,1000
17:08:28.662,-7.51,-2.34,-67.01,-1.34,1.83,-0.91,0.04,-0.15,1.0,1000
17:08:28.674,-7.55,-2.31,-67.03,-1.1,3.72,-1.83,0.02,-0.12,1.03,1000
17:08:28.687,-7.54,-2.21,-67.05,-1.1,4.33,-2.68,0.03,-0.12,1.02,1000
17:08:28.698,-7.52,-2.14,-67.07,-1.34,3.66,-1.59,0.04,-0.14,1.02,1000
17:08:28.708,-7.53,-2.1,-67.08,-1.1,2.26,-0.18,0.04,-0.13,1.01,1000
17:08:28.718,-7.54,-2.09,-67.08,-0.85,0.61,0.98,0.04,-0.14,1.02,1000
17:08:28.728,-7.56,-2.09,-67.07,-0.79,-0.55,1.16,0.03,-0.15,1.01,1000
17:08:28.745,-7.58,-2.05,-67.06,-0.85,-1.83,0.24,0.0,-0.13,1.03,1000
17:08:28.750,-7.57,-2.0,-67.06,-1.28,-3.41,-0.55,0.03,-0.12,1.03,1000
17:08:28.761,-7.57,-2.01,-67.06,-1.59,-4.09,0.18,0.05,-0.14,1.03,1000
17:08:28.772,-7.58,-2.09,-67.05,-1.28,-3.96,2.07,0.06,-0.14,1.01,1000
17:08:28.784,-7.6,-2.2,-67.03,-0.91,-2.32,3.05,0.07,-0.14,1.03,1000
17:08:28.808,-7.61,-2.29,-66.99,-0.73,0.37,3.17,0.06,-0.13,1.01,1000
17:08:28.808,-7.61,-2.34,-66.96,-0.55,2.87,2.99,0.06,-0.13,1.01,1000
17:08:28.816,-7.58,-2.34,-66.93,-0.49,4.63,1.65,0.03,-0.12,1.01,1000
17:08:28.827,-7.54,-2.28,-66.92,0.43,3.9,-0.67,0.0,-0.12,1.0,1000
17:08:28.839,-7.48,-2.13,-66.95,-0.43,1.46,-3.41,0.0,-0.12,1.03,1000
17:08:28.849,-7.42,-2.03,-66.99,-1.28,-2.5,-4.39,0.03,-0.13,1.02,1000
17:08:28.863,-7.41,-1.98,-67.04,-0.79,-6.77,-4.63,-0.01,-0.15,1.02,1000
17:08:28.871,-7.43,-1.96,-67.09,1.04,-9.82,-4.57,0.03,-0.13,1.03,1000
17:08:28.886,-7.43,-2.02,-67.14,0.98,-12.01,-2.8,0.05,-0.15,1.05,1000
17:08:28.906,-7.43,-2.16,-67.16,1.95,-13.17,-0.55,0.05,-0.15,1.02,1000
17:08:28.906,-7.45,-2.34,-67.15,2.13,-10.37,1.95,0.08,-0.13,1.04,1000
17:08:28.915,-7.45,-2.52,-67.12,1.22,-6.1,3.78,0.07,-0.15,1.02,1000
17:08:28.926,-7.47,-2.65,-67.08,1.22,-1.34,3.54,0.05,-0.13,1.02,1000
17:08:28.939,-7.46,-2.68,-67.05,0.79,3.05,1.16,0.03,-0.14,1.02,1000
17:08:28.950,-7.47,-2.59,-67.05,-0.12,5.43,-1.52,0.02,-0.14,1.04,1000
17:08:28.959,-7.48,-2.47,-67.07,-0.73,5.18,-2.68,0.05,-0.13,1.02,1000
17:08:28.970,-7.49,-2.41,-67.1,0.18,2.93,-2.44,0.04,-0.14,1.03,1000
17:08:28.981,-7.49,-2.38,-67.12,1.34,-1.04,-2.07,0.04,-0.13,1.03,1000
17:08:29.006,-7.48,-2.41,-67.14,2.93,-4.27,-1.28,0.04,-0.16,1.02,1000
17:08:29.007,-7.49,-2.42,-67.16,4.51,-6.46,-1.71,0.0,-0.14,1.02,1000
17:08:29.015,-7.46,-2.4,-67.18,5.73,-7.87,-2.5,0.04,-0.12,1.04,1000
17:08:29.026,-7.38,-2.45,-67.2,5.43,-7.87,-0.98,0.07,-0.14,1.04,1000
17:08:29.036,-7.33,-2.57,-67.2,5.0,-6.22,1.46,0.08,-0.14,1.02,1000
17:08:29.047,-7.28,-2.73,-67.18,4.88,-2.74,3.66,0.09,-0.12,1.01,1000
17:08:29.061,-7.24,-2.87,-67.13,3.72,1.34,5.0,0.08,-0.13,1.01,1000
17:08:29.069,-7.21,-2.94,-67.07,2.68,5.18,5.37,0.06,-0.12,0.99,1000
17:08:29.080,-7.18,-2.93,-67.02,0.98,7.26,3.54,0.04,-0.11,1.01,1000
17:08:29.091,-7.12,-2.85,-66.99,-1.28,7.13,1.65,0.05,-0.12,1.0,1000
17:08:29.106,-7.1,-2.77,-66.99,-2.56,4.57,-0.49,0.03,-0.11,1.01,1000
17:08:29.117,-7.06,-2.69,-67.0,-3.11,0.61,-1.77,0.04,-0.1,1.01,1000
17:08:29.125,-7.03,-2.66,-67.02,-3.17,-3.84,-2.32,0.05,-0.13,1.02,1000
17:08:29.136,-7.03,-2.71,-67.05,-3.05,-6.65,-2.2,0.05,-0.12,1.02,1000
17:08:29.147,-7.04,-2.81,-67.07,-2.26,-7.26,-1.77,0.07,-0.12,1.02,1000
17:08:29.157,-7.06,-2.94,-67.08,-1.04,-5.85,-1.4,0.06,-0.14,1.01,1000
17:08:29.169,-7.1,-3.02,-67.1,-0.24,-2.99,-2.68,0.04,-0.12,1.02,1000
17:08:29.181,-7.09,-3.01,-67.14,-0.24,-0.06,-3.6,0.06,-0.13,1.03,1000
17:08:29.197,-7.09,-3.01,-67.18,-0.43,1.71,-2.8,0.07,-0.14,1.03,1000
17:08:29.204,-7.12,-3.04,-67.2,-0.55,2.62,-1.1,0.07,-0.14,1.02,1000
17:08:29.212,-7.15,-3.07,-67.2,-0.79,2.68,0.24,0.07,-0.14,1.03,1000
17:08:29.224,-7.18,-3.1,-67.19,-1.04,2.87,1.46,0.06,-0.14,1.03,1000
17:08:29.234,-7.22,-3.1,-67.18,-1.1,2.87,1.04,0.05,-0.13,1.02,1000
17:08:29.246,-7.24,-3.06,-67.17,-1.1,2.8,-0.43,0.04,-0.12,1.02,1000
17:08:29.256,-7.22,-2.98,-67.19,-0.43,1.77,-2.62,0.02,-0.12,1.02,1000
17:08:29.267,-7.18,-2.87,-67.23,0.61,-0.18,-4.33,0.03,-0.12,1.03,1000
17:08:29.282,-7.14,-2.81,-67.28,1.04,-2.56,-4.88,0.04,-0.13,1.03,1000
17:08:29.289,-7.13,-2.81,-67.33,1.52,-3.96,-3.96,0.06,-0.14,1.03,1000
17:08:29.307,-7.13,-2.86,-67.36,1.65,-4.02,-2.38,0.07,-0.14,1.03,1000
17:08:29.312,-7.15,-2.93,-67.38,1.04,-2.07,-0.85,0.07,-0.15,1.02,1000
17:08:29.322,-7.19,-2.99,-67.39,0.91,0.61,-0.61,0.05,-0.14,1.01,1000
17:08:29.335,-7.22,-2.94,-67.41,0.43,2.99,-2.32,0.02,-0.12,1.01,1000
17:08:29.344,-7.19,-2.83,-67.44,0.24,3.9,-3.48,0.04,-0.11,1.02,1000
17:08:29.356,-7.14,-2.75,-67.47,0.0,3.17,-2.68,0.05,-0.12,1.02,1000
17:08:29.368,-7.12,-2.71,-67.5,0.06,1.89,-1.34,0.05,-0.12,1.02,1000
17:08:29.377,-7.1,-2.71,-67.51,-0.06,1.16,-0.06,0.05,-0.13,1.02,1000
17:08:29.388,-7.09,-2.72,-67.5,-0.43,0.79,0.43,0.06,-0.13,1.01,1000
17:08:29.400,-7.11,-2.73,-67.5,-0.85,1.59,0.37,0.05,-0.13,1.01,1000
17:08:29.415,-7.12,-2.73,-67.5,-1.59,2.32,-0.43,0.04,-0.13,1.0,1000
17:08:29.423,-7.13,-2.67,-67.51,-1.83,2.62,-2.8,0.01,-0.11,1.02,1000
17:08:29.432,-7.11,-2.57,-67.55,-1.65,1.22,-4.45,0.03,-0.11,1.02,1000
17:08:29.444,-7.09,-2.51,-67.6,-1.89,-0.67,-4.27,0.05,-0.13,1.03,1000
17:08:29.455,-7.1,-2.53,-67.64,-1.95,-2.44,-2.32,0.07,-0.14,1.02,1000
17:08:29.466,-7.12,-2.61,-67.66,-1.4,-2.5,-0.12,0.07,-0.14,1.02,1000
17:08:29.478,-7.16,-2.69,-67.65,-0.91,-1.04,0.79,0.06,-0.14,1.02,1000
17:08:29.488,-7.2,-2.74,-67.64,-0.85,1.77,0.67,0.05,-0.14,1.02,1000
17:08:29.501,-7.23,-2.71,-67.64,-1.4,4.33,-0.43,0.04,-0.13,1.02,1000
17:08:29.518,-7.24,-2.65,-67.65,-1.46,5.67,-1.22,0.04,-0.13,1.01,1000
17:08:29.522,-7.26,-2.57,-67.67,-1.22,5.55,-2.32,0.02,-0.13,1.02,1000
17:08:29.531,-7.27,-2.46,-67.7,-1.04,3.23,-3.17,0.03,-0.13,1.03,1000
17:08:29.542,-7.29,-2.38,-67.73,-1.52,0.98,-2.01,0.05,-0.15,1.03,1000
17:08:29.555,-7.34,-2.38,-67.74,-1.59,-1.22,0.24,0.06,-0.14,1.02,1000
17:08:29.564,-7.37,-2.42,-67.73,-1.1,-2.13,1.65,0.05,-0.13,1.03,1000
17:08:29.580,-7.39,-2.47,-67.71,-1.28,-1.65,2.32,0.05,-0.13,1.02,1000
17:08:29.589,-7.41,-2.5,-67.68,-1.4,0.12,2.32,0.05,-0.13,1.02,1000
17:08:29.597,-7.42,-2.5,-67.66,-1.89,2.32,1.4,0.05,-0.12,1.03,1000
17:08:29.612,-7.41,-2.5,-67.65,-1.83,4.09,0.98,0.05,-0.13,1.02,1000
17:08:29.625,-7.41,-2.48,-67.64,-1.52,4.88,0.24,0.04,-0.13,1.02,1000
17:08:29.630,-7.41,-2.44,-67.65,-0.98,4.39,-0.98,0.04,-0.12,1.02,1000
17:08:29.642,-7.39,-2.38,-67.66,-0.55,2.74,-1.59,0.03,-0.13,1.02,1000
17:08:29.652,-7.38,-2.34,-67.68,-0.12,0.43,-1.59,0.04,-0.14,1.03,1000
17:08:29.663,-7.38,-2.33,-67.7,0.24,-2.01,-1.4,0.04,-0.14,1.02,1000
17:08:29.675,-7.4,-2.33,-67.71,0.55,-3.72,-1.34,0.04,-0.14,1.02,1000
17:08:29.687,-7.4,-2.38,-67.72,0.55,-4.33,-0.79,0.06,-0.14,1.03,1000
17:08:29.698,-7.41,-2.46,-67.73,1.16,-3.11,-0.06,0.06,-0.14,1.02,1000
17:08:29.714,-7.42,-2.53,-67.73,1.59,-1.04,-0.43,0.05,-0.13,1.02,1000
17:08:29.723,-7.4,-2.55,-67.73,1.28,2.13,-1.1,0.05,-0.14,1.02,1000
17:08:29.731,-7.41,-2.56,-67.75,0.79,4.45,-1.52,0.06,-0.13,1.02,1000
17:08:29.740,-7.4,-2.53,-67.77,0.61,5.61,-2.07,0.03,-0.12,1.0,1000
17:08:29.751,-7.37,-2.45,-67.8,0.18,5.0,-3.66,0.03,-0.12,1.02,1000
17:08:29.762,-7.33,-2.36,-67.84,-0.85,2.8,-4.21,0.03,-0.13,1.01,1000
17:08:29.775,-7.31,-2.3,-67.89,-1.22,0.24,-4.33,0.03,-0.13,1.02,1000
17:08:29.785,-7.31,-2.28,-67.93,-1.89,-1.89,-4.02,0.04,-0.13,1.02,1000
17:08:29.796,-7.33,-2.29,-67.98,-2.74,-2.8,-3.29,0.04,-0.14,1.02,1000
17:08:29.826,-7.37,-2.31,-68.01,-3.05,-2.2,-3.41,0.05,-0.14,1.02,1000
17:08:29.830,-7.41,-2.32,-68.05,-2.56,-0.73,-3.66,0.02,-0.14,1.01,1000
17:08:29.831,-7.44,-2.23,-68.1,-1.89,0.43,-5.43,0.0,-0.12,1.03,1000
17:08:29.839,-7.44,-2.11,-68.16,-0.98,0.12,-5.61,0.01,-0.14,1.03,1000
17:08:29.850,-7.45,-2.01,-68.22,-0.24,-1.46,-4.45,0.03,-0.13,1.04,1000
17:08:29.862,-7.44,-1.98,-68.25,1.28,-3.41,-1.83,0.05,-0.13,1.03,1000
17:08:29.872,-7.43,-2.04,-68.25,1.95,-4.39,1.77,0.06,-0.16,1.04,1000
17:08:29.886,-7.46,-2.14,-68.22,1.89,-3.23,4.21,0.06,-0.14,1.02,1000
17:08:29.895,-7.46,-2.22,-68.17,1.95,-0.55,5.43,0.05,-0.13,1.01,1000
17:08:29.905,-7.44,-2.25,-68.11,0.67,2.87,4.63,0.05,-0.12,1.01,1000
17:08:29.919,-7.42,-2.24,-68.07,-0.24,5.3,3.6,0.04,-0.13,1.0,1000
17:08:29.931,-7.44,-2.18,-68.04,-1.52,6.16,1.65,0.03,-0.14,1.01,1000
17:08:29.940,-7.45,-2.08,-68.03,-2.56,5.18,-0.67,0.02,-0.13,1.01,1000
17:08:29.950,-7.46,-1.98,-68.05,-3.72,2.68,-1.77,0.03,-0.13,1.02,1000
17:08:29.961,-7.49,-1.94,-68.07,-3.78,-1.04,-1.89,0.04,-0.13,1.01,1000
17:08:29.974,-7.51,-1.96,-68.09,-3.78,-4.02,-1.89,0.04,-0.13,1.03,1000
17:08:29.982,-7.54,-2.02,-68.11,-3.17,-5.79,-1.65,0.04,-0.15,1.02,1000
17:08:29.993,-7.59,-2.07,-68.13,-2.13,-5.49,-2.2,0.02,-0.14,1.02,1000
17:08:30.008,-7.62,-2.08,-68.16,-1.28,-4.51,-3.48,0.02,-0.13,1.03,1000
17:08:30.019,-7.62,-2.09,-68.2,-0.24,-3.23,-3.11,0.05,-0.14,1.03,1000
17:08:30.028,-7.62,-2.13,-68.23,0.18,-2.01,-1.71,0.06,-0.15,1.03,1000
17:08:30.037,-7.64,-2.19,-68.24,0.55,-0.12,-0.12,0.06,-0.15,1.03,1000
17:08:30.048,-7.65,-2.24,-68.23,0.98,1.28,1.04,0.05,-0.14,1.03,1000
17:08:30.059,-7.65,-2.25,-68.22,1.04,2.5,1.59,0.04,-0.13,1.02,1000
17:08:30.072,-7.63,-2.25,-68.2,0.98,2.87,1.52,0.05,-0.13,1.03,1000
17:08:30.082,-7.61,-2.25,-68.19,0.43,3.05,1.59,0.05,-0.13,1.02,1000
17:08:30.095,-7.6,-2.24,-68.17,0.06,2.8,0.49,0.04,-0.13,1.01,1000
17:08:30.104,-7.59,-2.21,-68.17,-0.12,1.95,-1.04,0.02,-0.14,1.01,1000
17:08:30.119,-7.58,-2.12,-68.19,-0.43,0.37,-3.29,0.01,-0.12,1.03,1000
17:08:30.134,-7.56,-2.05,-68.24,-1.22,-1.83,-4.02,0.03,-0.14,1.02,1000
17:08:30.136,-7.57,-2.05,-68.28,-1.59,-3.17,-3.23,0.05,-0.15,1.03,1000
17:08:30.147,-7.62,-2.1,-68.31,-1.59,-3.66,-2.01,0.05,-0.14,1.02,1000
17:08:30.159,-7.66,-2.17,-68.32,-1.4,-2.56,-0.79,0.05,-0.14,1.02,1000
17:08:30.179,-7.7,-2.21,-68.33,-1.16,-0.43,-0.67,0.04,-0.13,1.02,1000
17:08:30.180,-7.71,-2.19,-68.34,0.24,1.71,-1.34,0.01,-0.14,1.01,1000
17:08:30.193,-7.69,-2.08,-68.36,1.1,2.26,-2.5,0.01,-0.12,1.03,1000
17:08:30.206,-7.62,-1.99,-68.38,1.46,1.28,-1.52,0.04,-0.14,1.02,1000
17:08:30.214,-7.6,-1.96,-68.39,1.46,-0.43,0.49,0.04,-0.15,1.02,1000
17:08:30.226,-7.59,-1.99,-68.37,1.46,-1.77,2.8,0.05,-0.14,1.02,1000
17:08:30.235,-7.58,-2.03,-68.34,1.59,-2.2,3.72,0.03,-0.14,1.02,1000
17:08:30.248,-7.58,-2.04,-68.3,1.28,-1.83,3.41,0.03,-0.13,1.01,1000
17:08:30.257,-7.57,-2.04,-68.26,0.61,-0.3,2.93,0.04,-0.13,1.01,1000
17:08:30.268,-7.56,-2.03,-68.23,-0.37,1.22,2.68,0.05,-0.13,1.01,1000
17:08:30.280,-7.56,-2.05,-68.2,-0.61,2.26,2.44,0.04,-0.13,1.0,1000
17:08:30.290,-7.56,-2.05,-68.18,-0.98,2.8,1.71,0.04,-0.13,1.02,1000
17:08:30.301,-7.56,-2.03,-68.16,-1.46,3.17,1.22,0.04,-0.13,1.01,1000
17:08:30.312,-7.56,-2.01,-68.15,-1.71,2.99,0.79,0.04,-0.13,1.02,1000
17:08:30.331,-7.55,-1.99,-68.14,-1.95,2.2,0.61,0.04,-0.13,1.02,1000
17:08:30.334,-7.55,-1.99,-68.13,-1.89,1.22,0.61,0.03,-0.14,1.02,1000
17:08:30.346,-7.57,-1.96,-68.13,-1.83,0.0,-0.37,0.01,-0.13,1.03,1000
17:08:30.356,-7.56,-1.9,-68.14,-0.98,-2.01,-1.34,0.01,-0.13,1.02,1000
17:08:30.368,-7.56,-1.82,-68.16,0.18,-4.33,-2.62,0.0,-0.14,1.04,1000
17:08:30.380,-7.55,-1.79,-68.18,0.18,-6.04,-1.22,0.06,-0.13,1.06,1000
17:08:30.389,-7.51,-1.88,-68.18,1.16,-5.67,2.44,0.07,-0.15,1.04,1000
17:08:30.400,-7.52,-2.01,-68.14,1.95,-4.82,5.24,0.07,-0.15,1.03,1000
17:08:30.411,-7.5,-2.17,-68.07,3.05,-1.83,7.13,0.06,-0.13,1.02,1000
17:08:30.422,-7.47,-2.26,-67.98,2.13,1.89,7.74,0.06,-0.15,1.02,1000
17:08:30.440,-7.46,-2.29,-67.9,1.28,4.82,6.83,0.05,-0.12,1.01,1000
17:08:30.444,-7.43,-2.27,-67.83,-0.06,6.34,5.67,0.05,-0.12,1.02,1000
17:08:30.455,-7.42,-2.24,-67.78,-1.46,6.22,4.57,0.04,-0.14,1.0,1000
17:08:30.466,-7.45,-2.21,-67.73,-3.48,4.33,3.05,0.04,-0.14,1.02,1000
17:08:30.477,-7.5,-2.19,-67.71,-4.82,1.77,1.83,0.04,-0.13,1.02,1000
17:08:30.490,-7.54,-2.2,-67.69,-4.76,-1.04,1.28,0.05,-0.13,1.03,1000
17:08:30.500,-7.59,-2.26,-67.68,-4.45,-2.74,0.98,0.07,-0.14,1.02,1000
17:08:30.512,-7.63,-2.38,-67.67,-2.26,-3.84,0.98,0.06,-0.14,1.02,1000
17:08:30.526,-7.65,-2.49,-67.66,-0.18,-2.8,0.06,0.06,-0.13,1.03,1000
17:08:30.539,-7.64,-2.58,-67.66,1.34,-0.67,-0.67,0.07,-0.14,1.02,1000
17:08:30.544,-7.62,-2.65,-67.67,2.13,2.2,-1.59,0.07,-0.14,1.03,1000
17:08:30.554,-7.59,-2.68,-67.7,1.95,5.12,-2.8,0.05,-0.14,1.02,1000
17:08:30.565,-7.57,-2.65,-67.73,1.16,6.95,-3.78,0.04,-0.14,1.02,1000
17:08:30.577,-7.56,-2.54,-67.78,0.98,6.89,-5.73,-0.01,-0.13,1.0,1000
17:08:30.590,-7.56,-2.3,-67.86,1.83,4.21,-8.48,-0.05,-0.15,1.02,1000
17:08:30.602,-7.54,-2.05,-67.95,1.22,0.85,-7.62,0.01,-0.11,1.05,1000
17:08:30.612,-7.48,-1.89,-68.01,1.4,-1.34,-2.99,0.03,-0.16,1.05,1000
17:08:30.620,-7.5,-1.86,-68.01,2.01,-2.93,3.9,0.05,-0.17,1.05,1000
17:08:30.642,-7.57,-1.91,-67.94,1.1,-3.35,10.43,0.04,-0.18,1.07,1000
17:08:30.643,-7.68,-1.96,-67.8,-0.18,-2.99,13.84,0.03,-0.18,1.05,1000
17:08:30.653,-7.79,-1.96,-67.65,-0.43,-1.04,14.33,0.02,-0.16,1.03,1000
17:08:30.667,-7.88,-1.87,-67.5,-0.06,0.73,11.46,-0.03,-0.15,1.04,1000
17:08:30.677,-7.91,-1.68,-67.4,1.04,2.26,6.77,-0.01,-0.13,1.04,1000
17:08:30.686,-7.88,-1.5,-67.34,1.83,2.8,3.72,0.01,-0.15,1.05,1000
17:08:30.699,-7.87,-1.36,-67.3,3.72,2.32,2.44,0.01,-0.15,1.04,1000
17:08:30.708,-7.83,-1.26,-67.28,6.1,1.59,1.71,0.03,-0.14,1.06,1000
17:08:30.719,-7.77,-1.22,-67.26,7.44,0.61,2.87,0.03,-0.15,1.05,1000
17:08:30.731,-7.73,-1.25,-67.22,8.41,0.37,3.66,0.03,-0.16,1.04,1000
17:08:30.746,-7.68,-1.23,-67.18,9.27,0.67,2.93,-0.0,-0.13,1.03,1000
17:08:30.752,-7.58,-1.15,-67.16,9.57,0.3,1.46,-0.01,-0.13,1.04,1000
17:08:30.763,-7.47,-1.06,-67.15,9.63,-0.37,1.1,0.01,-0.14,1.03,1000
17:08:30.775,-7.37,-0.98,-67.13,9.88,-1.4,1.65,-0.01,-0.13,1.04,1000
17:08:30.788,-7.25,-0.93,-67.11,9.39,-2.38,3.17,0.02,-0.11,1.03,1000
17:08:30.797,-7.12,-0.95,-67.05,9.82,-3.35,6.89,0.04,-0.12,1.02,1000
17:08:30.808,-7.0,-1.03,-66.96,9.7,-3.78,9.7,0.05,-0.12,1.01,1000
17:08:30.821,-6.87,-1.13,-66.85,10.3,-3.78,11.1,0.01,-0.11,0.98,1000
17:08:30.831,-6.72,-1.14,-66.73,9.57,-3.54,9.27,-0.01,-0.09,1.02,1000
17:08:30.842,-6.55,-1.12,-66.64,7.5,-3.9,8.6,0.04,-0.1,1.0,1000
17:08:30.856,-6.44,-1.18,-66.53,5.37,-3.96,9.63,0.04,-0.11,1.01,1000
17:08:30.866,-6.37,-1.27,-66.43,3.9,-4.82,10.0,0.03,-0.1,0.98,1000
17:08:30.873,-6.3,-1.36,-66.32,3.29,-6.04,8.66,0.02,-0.11,0.99,1000
17:08:30.885,-6.24,-1.39,-66.24,2.44,-7.26,5.79,0.0,-0.09,1.01,1000
17:08:30.896,-6.14,-1.42,-66.19,1.77,-8.6,3.54,0.04,-0.07,1.01,1000
17:08:30.909,-6.05,-1.54,-66.15,0.73,-9.02,3.23,0.07,-0.11,1.01,1000
17:08:30.920,-6.01,-1.73,-66.11,0.24,-8.05,3.54,0.08,-0.1,1.0,1000
17:08:30.928,-5.99,-1.94,-66.07,-0.73,-5.43,3.17,0.07,-0.11,1.01,1000
17:08:30.950,-6.01,-2.1,-66.05,-1.77,-1.77,1.83,0.06,-0.12,1.0,1000
17:08:30.951,-6.06,-2.2,-66.04,-3.11,2.01,-0.12,0.05,-0.1,1.01,1000
17:08:30.962,-6.07,-2.24,-66.05,-3.66,4.7,-1.77,0.06,-0.09,1.0,1000
17:08:30.976,-6.07,-2.27,-66.07,-4.39,5.67,-2.26,0.07,-0.11,1.01,1000
17:08:30.984,-6.12,-2.29,-66.1,-4.63,5.67,-2.44,0.06,-0.13,0.99,1000
17:08:30.994,-6.22,-2.31,-66.12,-4.45,5.24,-2.5,0.05,-0.13,1.0,1000
17:08:31.006,-6.33,-2.3,-66.15,-4.33,4.57,-2.99,0.04,-0.13,1.0,1000
17:08:31.016,-6.42,-2.27,-66.18,-2.93,3.72,-3.54,0.02,-0.12,1.0,1000
17:08:31.030,-6.49,-2.18,-66.23,-1.34,2.44,-4.7,0.02,-0.11,1.01,1000
17:08:31.039,-6.51,-2.12,-66.28,-0.18,0.67,-3.78,0.04,-0.13,1.01,1000
17:08:31.049,-6.55,-2.1,-66.31,1.1,-0.98,-2.07,0.03,-0.13,0.99,1000
17:08:31.062,-6.59,-2.1,-66.33,1.59,-2.13,-0.61,0.03,-0.11,1.01,1000
17:08:31.072,-6.59,-2.11,-66.33,1.1,-2.62,1.16,0.04,-0.13,1.01,1000
17:08:31.082,-6.63,-2.15,-66.31,-0.67,-2.38,3.17,0.05,-0.12,1.0,1000
17:08:31.100,-6.69,-2.2,-66.27,-3.35,-1.46,4.45,0.05,-0.12,1.01,1000
17:08:31.106,-6.75,-2.23,-66.21,-6.16,-0.79,5.24,0.05,-0.12,1.01,1000
17:08:31.115,-6.83,-2.27,-66.15,-7.8,-0.79,5.98,0.04,-0.12,1.0,1000
17:08:31.126,-6.92,-2.28,-66.08,-10.06,-0.24,5.67,0.05,-0.11,1.03,1000
17:08:31.157,-7.01,-2.34,-66.02,-11.52,0.43,6.34,0.08,-0.14,1.03,1000
17:08:31.157,-7.14,-2.44,-65.94,-11.46,1.95,7.8,0.08,-0.13,1.03,1000
17:08:31.160,-7.26,-2.54,-65.85,-10.73,3.96,8.6,0.08,-0.13,1.03,1000
17:08:31.170,-7.35,-2.63,-65.75,-8.6,7.01,8.66,0.09,-0.13,1.02,1000
17:08:31.181,-7.4,-2.71,-65.66,-5.73,10.67,8.05,0.08,-0.11,1.01,1000
17:08:31.192,-7.34,-2.74,-65.58,-2.5,13.78,6.4,0.06,-0.09,1.01,1000
17:08:31.205,-7.21,-2.66,-65.53,1.1,15.67,2.01,0.01,-0.11,1.01,1000
17:08:31.217,-7.09,-2.45,-65.53,3.6,15.3,-3.48,-0.01,-0.1,1.04,1000
17:08:31.225,-6.93,-2.17,-65.59,3.48,13.11,-7.68,0.01,-0.11,1.07,1000
17:08:31.236,-6.8,-1.95,-65.68,2.8,8.84,-8.66,0.02,-0.11,1.06,1000
17:08:31.250,-6.7,-1.84,-65.77,1.4,2.8,-7.56,0.04,-0.11,1.06,1000
17:08:31.258,-6.63,-1.85,-65.85,0.73,-2.87,-5.55,0.05,-0.13,1.05,1000
17:08:31.269,-6.61,-1.92,-65.9,0.73,-5.85,-4.21,0.04,-0.14,1.05,1000
17:08:31.282,-6.63,-2.03,-65.95,1.46,-6.52,-3.66,0.05,-0.14,1.04,1000
17:08:31.291,-6.64,-2.17,-65.98,3.11,-4.57,-3.29,0.08,-0.13,1.02,1000
17:08:31.302,-6.65,-2.36,-66.02,6.22,-0.98,-2.93,0.08,-0.15,0.99,1000
17:08:31.313,-6.68,-2.48,-66.06,9.88,4.09,-5.0,0.04,-0.15,0.98,1000
17:08:31.324,-6.65,-2.46,-66.13,13.41,8.9,-8.6,0.03,-0.13,0.96,1000
17:08:31.337,-6.62,-2.32,-66.25,15.91,12.5,-12.87,-0.0,-0.16,0.96,1000
17:08:31.347,-6.56,-2.1,-66.41,16.83,14.09,-16.89,0.01,-0.12,0.97,1000
17:08:31.357,-6.43,-1.88,-66.6,15.3,14.09,-18.35,0.03,-0.1,1.0,1000
17:08:31.370,-6.32,-1.69,-66.8,11.16,13.84,-18.78,0.01,-0.13,0.98,1000
17:08:31.381,-6.25,-1.49,-67.01,6.04,12.44,-19.39,-0.01,-0.07,0.98,1000
17:08:31.390,-6.14,-1.27,-67.23,-0.98,10.55,-20.3,-0.01,-0.06,0.98,1000
17:08:31.402,-6.0,-1.06,-67.46,-8.17,7.99,-20.79,-0.01,-0.03,0.97,1000
17:08:31.414,-5.87,-0.85,-67.69,-16.28,5.0,-21.83,-0.03,-0.0,1.0,1000
17:08:31.423,-5.69,-0.65,-67.93,-23.96,2.26,-21.59,-0.01,-0.0,1.02,1000
17:08:31.434,-5.58,-0.51,-68.16,-30.18,-0.67,-19.76,-0.02,-0.03,1.04,1000
17:08:31.446,-5.6,-0.44,-68.37,-33.72,-3.35,-16.52,0.01,-0.04,1.05,1000
17:08:31.470,-5.72,-0.46,-68.52,-34.39,-5.12,-10.98,0.04,-0.09,1.06,1000
17:08:31.470,-5.93,-0.57,-68.61,-31.52,-5.37,-4.09,0.05,-0.11,1.05,1000
17:08:31.478,-6.2,-0.71,-68.62,-25.61,-4.57,2.2,0.05,-0.15,1.04,1000
17:08:31.491,-6.49,-0.86,-68.57,-17.8,-2.38,7.44,0.05,-0.18,1.04,1000
17:08:31.500,-6.77,-0.97,-68.47,-8.9,1.1,10.98,0.03,-0.17,1.03,1000
17:08:31.512,-7.01,-0.99,-68.34,0.12,4.09,11.77,-0.01,-0.19,1.01,1000
17:08:31.526,-7.19,-0.84,-68.22,8.6,4.45,8.78,-0.08,-0.17,1.0,1000
17:08:31.534,-7.22,-0.56,-68.14,16.1,0.49,5.61,-0.07,-0.16,1.0,1000
17:08:31.546,-7.17,-0.31,-68.09,21.28,-6.16,4.33,-0.05,-0.18,1.03,1000
17:08:31.566,-7.11,-0.23,-68.04,23.54,-13.48,6.34,0.03,-0.21,1.02,1000
17:08:31.568,-7.19,-0.39,-67.95,23.23,-18.17,10.49,0.06,-0.22,1.02,1000
17:08:31.577,-7.26,-0.7,-67.82,20.73,-18.84,12.87,0.05,-0.18,0.99,1000
17:08:31.590,-7.28,-1.01,-67.68,15.73,-15.98,11.04,0.03,-0.14,0.98,1000
17:08:31.599,-7.27,-1.25,-67.58,8.54,-10.37,7.38,0.04,-0.12,0.97,1000
17:08:31.610,-7.26,-1.4,-67.52,0.24,-3.96,2.56,0.04,-0.11,0.98,1000
17:08:31.621,-7.27,-1.47,-67.52,-9.57,2.32,-2.99,0.03,-0.11,0.98,1000
17:08:31.632,-7.38,-1.47,-67.57,-18.96,6.52,-7.5,0.05,-0.12,1.0,1000
17:08:31.644,-7.58,-1.46,-67.67,-27.01,8.23,-10.79,0.05,-0.13,1.03,1000
17:08:31.655,-7.86,-1.47,-67.8,-32.38,7.07,-12.2,0.07,-0.14,1.05,1000
17:08:31.670,-8.19,-1.55,-67.93,-35.24,4.94,-12.2,0.07,-0.16,1.08,1000
17:08:31.677,-8.57,-1.66,-68.07,-35.49,3.6,-12.2,0.06,-0.16,1.1,1000
17:08:31.689,-8.93,-1.74,-68.21,-32.74,3.41,-13.41,0.04,-0.17,1.12,1000
17:08:31.698,-9.24,-1.76,-68.37,-27.99,3.96,-15.18,0.04,-0.16,1.12,1000
17:08:31.710,-9.44,-1.72,-68.54,-21.04,5.43,-17.2,0.0,-0.17,1.12,1000
17:08:31.720,-9.56,-1.58,-68.74,-12.99,6.34,-19.51,-0.02,-0.17,1.12,1000
17:08:31.731,-9.59,-1.35,-68.96,-2.44,5.0,-20.49,-0.06,-0.18,1.11,1000
17:08:31.746,-9.53,-1.03,-69.19,7.68,1.04,-20.55,-0.08,-0.19,1.13,1000
17:08:31.755,-9.38,-0.78,-69.4,15.37,-4.82,-15.73,-0.02,-0.17,1.13,1000
17:08:31.777,-9.18,-0.7,-69.52,20.49,-11.65,-5.61,0.03,-0.22,1.12,1000
17:08:31.777,-9.06,-0.84,-69.52,24.33,-16.65,7.07,0.07,-0.26,1.06,1000
17:08:31.786,-9.03,-1.06,-69.39,28.29,-20.0,15.73,-0.03,-0.23,1.09,1000
17:08:31.797,-8.9,-1.19,-69.2,28.66,-22.01,21.65,0.02,-0.12,1.12,1000
17:08:31.811,-8.53,-1.42,-68.92,25.3,-22.26,28.48,0.08,-0.13,1.1,1000
17:08:31.819,-8.22,-1.76,-68.58,23.29,-20.98,34.21,0.1,-0.14,1.02,1000
17:08:31.831,-7.94,-2.13,-68.22,20.73,-18.48,37.01,0.1,-0.1,1.03,1000
17:08:31.843,-7.6,-2.49,-67.78,17.93,-13.96,36.4,0.07,-0.09,0.97,1000
17:08:31.856,-7.26,-2.76,-67.39,15.24,-8.96,33.6,0.08,-0.06,0.98,1000
17:08:31.868,-6.9,-2.96,-67.04,12.32,-4.02,29.57,0.08,-0.08,0.94,1000
17:08:31.878,-6.63,-3.11,-66.74,10.79,0.24,24.63,0.05,-0.12,0.91,1000
17:08:31.885,-6.46,-3.13,-66.5,8.6,2.62,18.17,0.02,-0.08,0.94,1000
17:08:31.896,-6.26,-3.05,-66.33,6.1,3.84,11.34,0.03,-0.06,0.93,1000
17:08:31.908,-6.07,-2.95,-66.24,3.54,3.41,6.04,0.05,-0.1,0.96,1000
17:08:31.928,-5.98,-2.94,-66.19,1.28,2.8,2.93,0.09,-0.1,0.95,1000
17:08:31.937,-5.94,-3.02,-66.16,0.06,3.66,0.79,0.08,-0.1,0.97,1000
17:08:31.940,-5.92,-3.07,-66.17,-0.67,5.55,-1.95,0.05,-0.08,0.96,1000
17:08:31.970,-5.88,-2.99,-66.22,1.77,7.13,-7.87,-0.05,-0.11,0.96,1000
17:08:31.970,-5.84,-2.59,-66.35,4.7,6.77,-16.52,-0.06,-0.07,1.0,1000
17:08:31.976,-5.64,-2.2,-66.56,5.43,6.04,-20.12,0.02,-0.03,1.02,1000
17:08:31.984,-5.43,-2.0,-66.76,4.51,4.57,-19.45,0.02,-0.08,1.02,1000
17:08:31.997,-5.27,-1.87,-66.96,7.32,1.95,-17.01,-0.02,-0.08,0.97,1000
17:08:32.006,-5.07,-1.71,-67.15,8.78,-0.37,-13.72,-0.01,-0.06,1.01,1000
17:08:32.017,-4.89,-1.54,-67.28,8.17,-1.83,-10.49,-0.03,-0.09,0.98,1000
17:08:32.029,-4.75,-1.34,-67.38,6.83,-1.59,-7.5,-0.03,-0.06,0.99,1000
17:08:32.040,-4.61,-1.17,-67.45,3.66,-1.28,-4.76,-0.04,-0.06,0.98,1000
17:08:32.054,-4.51,-0.92,-67.5,0.55,-0.79,-3.6,-0.07,-0.05,0.98,1000
17:08:32.072,-4.42,-0.65,-67.53,-3.78,-1.04,-0.55,-0.04,-0.04,1.0,1000
17:08:32.072,-4.35,-0.42,-67.5,-7.68,-2.13,5.18,-0.01,-0.08,0.99,1000
17:08:32.083,-4.38,-0.3,-67.41,-10.43,-3.29,12.13,0.01,-0.06,1.01,1000
17:08:32.094,-4.44,-0.29,-67.24,-12.38,-4.39,18.9,0.02,-0.09,1.02,1000
17:08:32.105,-4.59,-0.35,-67.01,-13.66,-4.27,24.51,0.03,-0.11,1.02,1000
17:08:32.116,-4.78,-0.46,-66.72,-13.72,-2.8,27.99,0.04,-0.11,1.03,1000
17:08:32.127,-5.0,-0.57,-66.4,-13.11,-0.37,28.6,0.02,-0.13,1.03,1000
17:08:32.140,-5.22,-0.6,-66.12,-11.89,2.2,26.83,0.02,-0.12,1.04,1000
17:08:32.150,-5.45,-0.53,-65.82,-7.62,3.96,22.32,-0.05,-0.15,1.04,1000
17:08:32.162,-5.64,-0.34,-65.61,-3.66,2.99,15.98,-0.03,-0.14,1.09,1000
17:08:32.172,-5.75,-0.2,-65.45,-1.28,-0.91,14.09,0.01,-0.13,1.11,1000
17:08:32.184,-5.82,-0.18,-65.29,3.17,-5.91,14.09,0.01,-0.16,1.08,1000
17:08:32.193,-5.92,-0.26,-65.13,9.27,-12.44,14.88,0.02,-0.16,1.09,1000
17:08:32.205,-5.97,-0.41,-64.97,13.54,-16.95,15.0,0.02,-0.15,1.09,1000
17:08:32.215,-5.98,-0.61,-64.81,16.65,-18.54,13.84,0.01,-0.15,1.06,1000
17:08:32.226,-5.93,-0.77,-64.67,18.23,-17.2,11.71,0.0,-0.14,1.04,1000
17:08:32.243,-5.87,-0.86,-64.55,19.27,-15.24,8.84,-0.04,-0.14,1.01,1000
17:08:32.250,-5.79,-0.82,-64.47,18.66,-13.9,6.59,-0.02,-0.12,1.02,1000
17:08:32.260,-5.71,-0.8,-64.39,17.5,-13.6,8.66,0.02,-0.15,0.99,1000
17:08:32.276,-5.69,-0.87,-64.26,17.44,-13.11,14.21,0.03,-0.12,1.01,1000
17:08:32.285,-5.62,-1.03,-64.07,15.79,-12.68,21.04,0.07,-0.12,1.01,1000
17:08:32.292,-5.57,-1.26,-63.81,14.88,-9.76,26.52,0.07,-0.14,0.98,1000
17:08:32.304,-5.58,-1.51,-63.51,13.41,-5.61,29.02,0.07,-0.12,0.97,1000
17:08:32.314,-5.57,-1.67,-63.19,11.65,-0.67,27.8,0.04,-0.1,0.95,1000
17:08:32.326,-5.54,-1.71,-62.9,10.06,3.66,23.96,0.02,-0.11,0.92,1000
17:08:32.357,-5.53,-1.62,-62.67,6.28,7.62,17.68,0.01,-0.1,0.95,1000
17:08:32.357,-5.56,-1.49,-62.5,1.1,10.49,13.48,0.06,-0.1,0.95,1000
17:08:32.381,-5.67,-1.45,-62.36,-6.71,12.2,11.16,0.06,-0.15,0.97,1000
17:08:32.381,-5.9,-1.38,-62.25,-13.66,11.22,7.5,0.0,-0.1,0.96,1000
17:08:32.390,-6.13,-1.26,-62.19,-20.98,7.38,3.54,0.02,-0.09,1.02,1000
17:08:32.392,-6.4,-1.19,-62.16,-27.93,2.62,1.95,0.04,-0.12,1.02,1000
17:08:32.402,-6.73,-1.24,-62.14,-31.89,-1.59,2.5,0.06,-0.11,1.03,1000
17:08:32.414,-7.06,-1.4,-62.1,-33.84,-5.12,4.21,0.07,-0.12,1.03,1000
17:08:32.425,-7.39,-1.59,-62.05,-32.32,-7.74,5.37,0.03,-0.12,1.04,1000
17:08:32.435,-7.67,-1.69,-61.99,-29.94,-9.33,4.51,0.02,-0.1,1.08,1000
17:08:32.447,-7.83,-1.78,-61.95,-27.5,-11.22,6.1,0.07,-0.1,1.08,1000
17:08:32.463,-7.98,-2.01,-61.85,-21.59,-12.38,11.28,0.1,-0.13,1.07,1000
17:08:32.469,-8.06,-2.27,-61.71,-15.43,-12.2,15.67,0.1,-0.13,1.07,1000
17:08:32.481,-8.09,-2.56,-61.51,-6.95,-9.27,18.35,0.07,-0.13,1.07,1000
17:08:32.490,-8.04,-2.73,-61.3,-0.37,-4.39,17.87,0.07,-0.13,1.06,1000
17:08:32.501,-7.93,-2.83,-61.12,4.82,1.28,16.65,0.06,-0.14,1.03,1000
17:08:32.512,-7.84,-2.83,-60.94,9.7,6.83,13.84,0.03,-0.15,0.99,1000
17:08:32.523,-7.74,-2.65,-60.82,13.29,10.0,8.11,-0.03,-0.17,1.01,1000
17:08:32.534,-7.65,-2.34,-60.75,12.74,10.85,5.12,0.02,-0.13,1.03,1000
17:08:32.545,-7.57,-2.14,-60.69,9.94,9.45,5.18,0.05,-0.17,1.02,1000
17:08:32.556,-7.62,-2.06,-60.63,5.67,7.01,6.52,0.06,-0.18,1.04,1000
17:08:32.567,-7.69,-2.03,-60.55,1.04,4.09,6.28,0.03,-0.14,1.01,1000
17:08:32.584,-7.76,-1.98,-60.5,-3.78,1.71,3.11,0.02,-0.13,1.02,1000
17:08:32.589,-7.82,-1.92,-60.48,-8.72,0.79,-0.55,0.03,-0.1,1.0,1000
17:08:32.601,-7.87,-1.86,-60.51,-12.44,1.22,-5.55,-0.01,-0.13,1.0,1000
17:08:32.613,-7.97,-1.74,-60.6,-15.12,1.52,-10.0,0.0,-0.14,1.01,1000
17:08:32.622,-8.1,-1.57,-60.73,-16.95,0.61,-14.88,-0.04,-0.13,1.04,1000
17:08:32.636,-8.22,-1.36,-60.91,-17.38,-2.68,-16.4,0.01,-0.14,1.08,1000
17:08:32.652,-8.39,-1.34,-61.07,-17.74,-7.74,-12.5,0.06,-0.18,1.12,1000
17:08:32.657,-8.55,-1.47,-61.17,-16.28,-11.34,-6.22,0.09,-0.16,1.11,1000
17:08:32.668,-8.69,-1.77,-61.2,-13.17,-13.23,1.28,0.11,-0.15,1.13,1000
17:08:32.684,-8.76,-2.09,-61.16,-8.9,-10.24,5.79,0.1,-0.16,1.1,1000
17:08:32.692,-8.78,-2.35,-61.09,-3.66,-3.35,6.4,0.09,-0.14,1.1,1000
17:08:32.699,-8.72,-2.5,-61.03,0.55,5.0,4.15,0.07,-0.14,1.09,1000
17:08:32.712,-8.59,-2.54,-61.0,2.99,12.62,1.46,0.09,-0.13,1.07,1000
17:08:32.721,-8.45,-2.55,-60.99,4.51,16.89,-0.37,0.08,-0.17,1.06,1000
17:08:32.741,-8.39,-2.46,-61.01,7.62,17.93,-3.54,0.01,-0.16,1.03,1000
17:08:32.743,-8.31,-2.24,-61.07,8.9,15.67,-8.11,0.01,-0.15,1.06,1000
17:08:32.754,-8.23,-2.05,-61.16,10.12,11.1,-9.94,0.01,-0.2,1.02,1000
17:08:32.771,-8.19,-1.86,-61.29,12.56,3.54,-11.52,0.01,-0.13,1.05,1000
17:08:32.794,-8.05,-1.77,-61.41,13.84,-3.48,-10.73,0.04,-0.13,1.03,1000
17:08:32.795,-7.9,-1.82,-61.52,15.55,-8.35,-8.66,0.05,-0.18,1.01,1000
17:08:32.798,-7.79,-1.95,-61.61,16.22,-9.21,-7.13,0.05,-0.13,0.99,1000
17:08:32.809,-7.66,-2.07,-61.69,14.45,-4.88,-7.8,0.04,-0.15,0.99,1000
17:08:32.820,-7.56,-2.1,-61.78,13.23,1.1,-10.12,0.01,-0.13,0.94,1000
17:08:32.831,-7.41,-1.99,-61.91,11.65,5.73,-13.6,-0.01,-0.09,0.97,1000
17:08:32.842,-7.17,-1.77,-62.07,9.21,6.71,-15.67,0.01,-0.09,0.96,1000
17:08:32.855,-6.98,-1.62,-62.24,7.26,4.45,-14.33,0.02,-0.11,0.98,1000
17:08:32.866,-6.87,-1.56,-62.38,4.45,0.49,-10.91,0.05,-0.12,0.99,1000
17:08:32.877,-6.82,-1.62,-62.48,1.59,-3.23,-6.46,0.06,-0.13,0.99,1000
17:08:32.891,-6.84,-1.77,-62.53,-0.85,-5.24,-3.05,0.06,-0.14,0.99,1000
17:08:32.898,-6.91,-1.94,-62.55,-3.05,-3.84,-1.1,0.06,-0.14,1.0,1000
17:08:32.910,-7.01,-2.04,-62.57,-3.78,-0.85,-2.8,0.0,-0.14,1.0,1000
17:08:32.921,-7.07,-1.99,-62.62,-3.35,1.83,-6.71,0.02,-0.1,1.03,1000
17:08:32.930,-7.07,-1.92,-62.71,-1.52,2.74,-8.23,0.04,-0.14,1.03,1000
17:08:32.941,-7.08,-1.88,-62.8,1.46,2.8,-8.84,0.06,-0.12,1.03,1000
17:08:32.952,-7.05,-1.93,-62.89,4.76,2.93,-6.83,0.07,-0.14,1.03,1000
17:08:32.963,-7.05,-2.02,-62.96,7.5,4.51,-5.91,0.07,-0.17,1.03,1000
17:08:32.975,-7.08,-2.08,-63.02,9.39,7.26,-6.22,0.05,-0.14,1.02,1000
17:08:33.001,-7.06,-2.05,-63.1,9.63,10.12,-8.41,0.03,-0.14,1.02,1000
17:08:33.001,-7.01,-1.93,-63.21,9.15,11.83,-11.77,0.01,-0.11,1.01,1000
17:08:33.007,-6.91,-1.76,-63.36,7.8,11.71,-14.57,0.02,-0.11,1.01,1000
17:08:33.018,-6.82,-1.61,-63.52,5.61,10.0,-15.79,0.02,-0.11,0.99,1000
17:08:33.030,-6.75,-1.5,-63.68,4.63,7.44,-16.16,0.01,-0.11,0.98,1000
17:08:33.040,-6.69,-1.33,-63.88,3.23,4.15,-17.44,-0.03,-0.1,1.0,1000
17:08:33.051,-6.61,-1.16,-64.07,1.34,0.85,-17.13,0.0,-0.1,1.0,1000
17:08:33.062,-6.58,-1.07,-64.25,-0.18,-1.34,-14.57,0.01,-0.12,1.0,1000
17:08:33.073,-6.57,-1.04,-64.4,-1.16,-2.13,-11.22,0.02,-0.1,0.99,1000
17:08:33.085,-6.56,-1.06,-64.5,-2.2,-1.46,-7.93,0.03,-0.11,1.0,1000
17:08:33.101,-6.6,-1.09,-64.57,-3.35,0.3,-5.0,0.03,-0.12,0.99,1000
17:08:33.107,-6.66,-1.09,-64.62,-3.72,3.48,-3.6,0.01,-0.12,0.99,1000
17:08:33.118,-6.7,-1.01,-64.66,-4.02,6.46,-4.09,-0.01,-0.1,1.01,1000
17:08:33.128,-6.7,-0.9,-64.7,-3.96,7.87,-2.99,0.03,-0.11,1.01,1000
17:08:33.139,-6.71,-0.84,-64.73,-2.93,7.99,-0.49,0.04,-0.12,1.02,1000
17:08:33.150,-6.71,-0.83,-64.72,-1.46,6.95,1.83,0.04,-0.11,1.02,1000
17:08:33.163,-6.71,-0.87,-64.69,-0.79,5.43,3.54,0.04,-0.13,1.03,1000
17:08:33.174,-6.73,-0.91,-64.65,-0.61,4.63,3.72,0.04,-0.12,1.02,1000
17:08:33.188,-6.74,-0.97,-64.61,-0.85,4.27,2.99,0.04,-0.12,1.03,1000
17:08:33.197,-6.75,-1.03,-64.58,-1.77,4.45,1.04,0.05,-0.11,1.02,1000
17:08:33.205,-6.75,-1.06,-64.59,-2.2,4.45,-2.2,0.01,-0.12,1.01,1000
17:08:33.216,-6.73,-0.99,-64.64,-2.87,3.66,-7.5,-0.02,-0.09,1.04,1000
17:08:33.228,-6.7,-0.88,-64.74,-2.2,1.4,-10.67,0.0,-0.1,1.04,1000
17:08:33.240,-6.65,-0.84,-64.86,-1.71,-1.52,-11.04,0.04,-0.1,1.08,1000
17:08:33.249,-6.58,-0.92,-64.97,-1.52,-3.72,-8.23,0.06,-0.13,1.05,1000
17:08:33.261,-6.59,-1.1,-65.04,-0.43,-3.72,-4.88,0.07,-0.14,1.05,1000
17:08:33.271,-6.62,-1.29,-65.08,-0.24,-0.43,-2.68,0.06,-0.12,1.05,1000
17:08:33.282,-6.63,-1.44,-65.11,-0.49,5.06,-3.17,0.05,-0.11,1.04,1000
17:08:33.300,-6.62,-1.46,-65.16,-0.79,10.98,-6.1,0.02,-0.12,1.03,1000
17:08:33.305,-6.61,-1.35,-65.24,-1.4,15.55,-9.51,0.01,-0.11,1.03,1000
17:08:33.316,-6.61,-1.16,-65.36,-2.5,17.44,-12.68,-0.01,-0.11,1.03,1000
17:08:33.326,-6.59,-0.91,-65.52,-2.99,16.22,-14.7,-0.01,-0.1,1.04,1000
17:08:33.337,-6.55,-0.67,-65.68,-3.54,12.8,-15.0,-0.01,-0.11,1.04,1000
17:08:33.348,-6.53,-0.48,-65.84,-3.41,7.74,-13.17,-0.01,-0.12,1.04,1000
17:08:33.359,-6.53,-0.35,-65.97,-2.87,2.99,-11.04,-0.01,-0.11,1.05,1000
17:08:33.370,-6.52,-0.27,-66.09,-2.2,-0.3,-9.51,-0.03,-0.12,1.05,1000
17:08:33.381,-6.5,-0.19,-66.18,-1.22,-1.95,-7.68,0.0,-0.11,1.05,1000
17:08:33.392,-6.48,-0.16,-66.26,-0.61,-1.22,-5.73,0.01,-0.12,1.06,1000
17:08:33.411,-6.45,-0.16,-66.31,0.06,0.49,-3.9,0.0,-0.12,1.04,1000
17:08:33.414,-6.44,-0.16,-66.34,1.16,2.99,-2.38,0.01,-0.13,1.04,1000
17:08:33.428,-6.43,-0.06,-66.37,5.12,4.09,-3.23,-0.09,-0.11,1.03,1000
17:08:33.436,-6.36,0.19,-66.41,8.78,1.95,-3.84,-0.02,-0.09,1.08,1000
17:08:33.447,-6.21,0.27,-66.44,9.76,-1.46,0.24,0.02,-0.12,1.07,1000
17:08:33.458,-6.12,0.23,-66.41,10.79,-4.21,5.06,0.02,-0.14,1.05,1000
17:08:33.469,-6.05,0.09,-66.33,11.65,-5.12,8.9,0.04,-0.11,1.04,1000
17:08:33.481,-5.98,-0.1,-66.22,10.24,-3.23,10.98,0.04,-0.13,1.03,1000
17:08:33.494,-5.91,-0.24,-66.1,8.78,1.04,9.88,0.04,-0.09,1.0,1000
17:08:33.506,-5.82,-0.34,-66.01,6.22,5.55,7.38,0.04,-0.1,1.01,1000
17:08:33.513,-5.75,-0.38,-65.94,2.38,9.76,4.02,0.04,-0.09,1.0,1000
17:08:33.524,-5.7,-0.39,-65.92,-0.37,12.13,0.67,0.03,-0.09,1.0,1000
17:08:33.581,-5.55,-0.02,-0.46,1.95,-1.83,-14.82,0.01,-0.11,1.04,1100
17:08:34.591,-5.43,0.38,-2.55,-3.78,-5.12,8.23,-0.32,-0.05,1.16,1130
17:08:34.608,-5.42,0.5,-2.49,-8.84,-16.52,4.39,0.16,0.14,1.14,1130
17:08:34.615,-5.44,0.55,-2.44,-15.12,-9.76,2.01,0.6,-0.14,1.07,1130
17:08:34.632,-5.51,0.51,-2.39,-0.55,4.39,4.57,-0.04,-0.51,1.12,1130
17:08:36.594,1.29,-2.81,-16.43,-12.74,11.89,2.93,-0.2,-0.95,1.19,1260
17:08:37.606,2.68,-2.58,-22.42,36.28,-5.49,7.8,0.08,1.29,1.32,1260
17:08:37.616,2.78,-2.67,-22.34,-24.21,13.54,13.66,0.09,-0.52,1.2,1260
17:08:37.627,2.39,-2.68,-22.26,44.63,5.79,13.84,0.31,0.31,0.79,1260
17:08:37.638,2.15,-2.72,-22.18,-19.09,5.43,12.5,-0.18,0.55,1.48,1260
17:08:38.650,1.3,-1.88,-19.81,12.8,-0.12,-5.18,0.17,-1.32,0.86,1260
17:08:39.662,-2.38,-2.18,-18.42,6.77,9.51,1.4,-0.45,-1.42,1.0,1260
17:08:40.680,-0.54,-1.28,-21.19,-0.12,2.01,0.67,-0.28,-1.14,1.19,1270
17:08:40.685,-0.88,-1.26,-21.19,35.43,-18.11,6.83,0.49,0.61,0.78,1270
17:08:40.696,-1.31,-1.27,-21.19,-38.11,-0.3,1.1,0.14,-0.55,1.41,1270
17:08:40.707,-1.33,-1.37,-21.18,41.89,-18.23,7.13,0.44,0.32,0.68,1270
17:08:42.728,1.18,-1.1,-16.23,15.91,5.91,-2.44,-0.69,-0.37,1.02,1270
17:08:43.753,0.3,-1.98,-23.38,-41.28,-1.95,5.91,0.01,-0.1,1.1,1270
17:08:43.758,0.62,-1.96,-23.29,40.79,-11.77,3.17,-0.05,-0.87,0.47,1270
17:08:43.766,0.42,-1.88,-23.21,-9.76,1.22,8.17,0.16,1.21,0.92,1270
17:08:44.779,1.19,-3.7,-23.87,6.52,10.91,-11.89,0.5,1.02,1.11,1270
17:08:47.791,0.9,-3.62,-22.74,-6.28,9.39,-28.72,-0.14,-0.51,1.06,1270
17:08:48.804,0.29,-3.07,-20.08,-0.98,-16.1,41.4,0.02,-0.48,0.8,1270
