Timestamp,Roll,Pitch,Yaw,Gyro_X,Gyro_Y,Gyro_Z,Accel_X,Accel_Y,Accel_Z,Throttle
17:51:25.980,-5.7,1.52,-78.06,4.39,-1.83,-2.13,-0.05,-0.12,1.02,1000
17:51:25.986,-5.87,2.0,-78.09,8.6,-2.13,-2.5,-0.07,-0.11,1.06,1000
17:51:25.998,-5.8,2.42,-78.11,12.87,-2.56,-1.71,-0.07,-0.11,1.05,1000
17:51:26.008,-5.97,2.49,-78.12,18.29,-3.35,0.79,-0.04,-0.14,1.08,1000
17:51:26.020,-5.78,2.2,-78.08,23.41,-4.33,5.85,-0.01,-0.1,1.08,1000
17:51:26.036,-5.38,1.66,-77.98,26.89,-4.82,11.52,0.0,-0.1,1.09,1000
17:51:26.043,-5.05,1.23,-77.82,27.26,-4.82,16.1,0.01,-0.08,1.06,1000
17:51:26.052,-4.47,0.83,-77.63,24.57,-3.78,18.23,0.0,-0.07,1.04,1000
17:51:26.063,-4.35,0.9,-77.43,21.1,-2.56,16.95,-0.04,-0.08,0.98,1000
17:51:26.074,-3.98,1.46,-77.28,17.87,-0.85,11.95,-0.07,-0.05,0.99,1000
17:51:26.085,-3.26,2.03,-77.17,12.8,-1.1,7.5,-0.06,-0.02,1.03,1000
17:51:26.096,-2.7,1.99,-77.1,9.88,-1.16,5.73,-0.02,-0.02,1.02,1000
17:51:26.109,-2.39,1.65,-77.04,7.26,-2.68,5.98,0.0,-0.04,1.03,1000
17:51:26.120,-2.35,1.21,-76.96,5.3,-3.96,7.2,0.02,-0.05,1.0,1000
17:51:26.136,-2.32,0.48,-76.88,2.38,-4.02,7.93,0.03,-0.05,1.01,1000
17:51:26.140,-2.41,0.13,-76.8,-0.79,-2.8,6.4,0.01,-0.04,0.98,1000
17:51:26.151,-2.42,0.07,-76.75,-3.72,-0.3,2.93,-0.0,-0.04,0.99,1000
17:51:26.162,-2.47,0.32,-76.74,-5.91,1.89,-0.98,-0.03,-0.04,0.99,1000
17:51:26.173,-2.32,0.52,-76.78,-6.89,3.17,-4.51,-0.01,-0.02,1.02,1000
17:51:26.187,-2.37,0.32,-76.83,-7.01,2.87,-4.45,0.02,-0.06,1.02,1000
17:51:26.195,-2.55,-0.0,-76.86,-5.49,2.26,-2.74,0.02,-0.05,1.01,1000
17:51:26.205,-2.65,-0.25,-76.88,-5.0,1.46,-1.04,0.02,-0.05,1.02,1000
17:51:26.216,-2.61,-0.43,-76.89,-5.98,1.04,-0.85,0.02,-0.05,1.01,1000
17:51:26.228,-2.94,-0.44,-76.91,-7.8,1.89,-1.89,0.0,-0.06,1.0,1000
17:51:26.241,-3.06,-0.19,-76.94,-9.15,2.93,-4.45,-0.02,-0.04,1.01,1000
17:51:26.250,-3.1,0.15,-77.01,-10.18,3.41,-7.01,-0.03,-0.07,1.01,1000
17:51:26.260,-3.4,0.75,-77.1,-8.9,2.93,-9.51,-0.06,-0.07,1.03,1000
17:51:26.271,-3.55,1.31,-77.22,-5.24,1.16,-10.55,-0.04,-0.06,1.03,1000
17:51:26.282,-3.53,1.4,-77.32,-2.5,-1.77,-8.54,-0.02,-0.07,1.08,1000
17:51:26.293,-3.68,1.19,-77.39,-0.18,-3.78,-4.7,-0.0,-0.08,1.04,1000
17:51:26.305,-3.95,0.79,-77.42,2.13,-4.09,-0.67,0.01,-0.09,1.06,1000
17:51:26.316,-4.03,0.56,-77.41,1.28,-2.74,1.59,-0.01,-0.07,1.03,1000
17:51:26.327,-3.99,0.57,-77.39,-0.18,-0.55,1.59,-0.02,-0.07,1.02,1000
17:51:26.344,-3.9,0.7,-77.39,-3.96,1.95,0.06,-0.02,-0.05,1.03,1000
17:51:26.350,-3.7,0.75,-77.4,-7.32,3.9,-1.65,-0.01,-0.04,1.02,1000
17:51:26.359,-3.79,0.72,-77.42,-10.43,4.51,-2.87,-0.01,-0.09,1.01,1000
17:51:26.371,-4.09,0.9,-77.47,-12.26,3.84,-4.82,-0.03,-0.07,1.02,1000
17:51:26.382,-4.15,1.2,-77.53,-10.91,2.68,-6.22,-0.05,-0.07,1.01,1000
17:51:26.393,-4.26,1.78,-77.61,-9.82,-0.06,-8.54,-0.07,-0.08,1.05,1000
17:51:26.405,-4.17,1.99,-77.71,-6.52,-2.68,-8.48,-0.04,-0.06,1.04,1000
17:51:26.415,-4.33,1.75,-77.79,-2.93,-4.27,-5.98,-0.01,-0.1,1.05,1000
17:51:26.426,-4.64,1.49,-77.84,0.85,-4.33,-3.11,-0.02,-0.1,1.03,1000
17:51:26.455,-4.68,1.33,-77.86,3.17,-2.93,-1.16,-0.01,-0.09,1.05,1000
17:51:26.455,-4.97,1.19,-77.86,4.76,0.37,-0.06,-0.02,-0.11,1.01,1000
17:51:26.459,-4.89,1.43,-77.87,5.06,3.11,-0.79,-0.05,-0.07,1.05,1000
17:51:26.470,-4.59,1.63,-77.88,4.21,5.0,-1.1,-0.03,-0.07,1.02,1000
17:51:26.481,-4.61,1.72,-77.88,4.82,5.3,-0.67,-0.04,-0.09,1.03,1000
17:51:26.492,-4.39,1.84,-77.89,3.84,3.66,0.3,-0.03,-0.06,1.04,1000
17:51:26.502,-4.32,1.8,-77.88,2.74,1.52,1.34,-0.02,-0.09,1.03,1000
17:51:26.514,-4.45,1.62,-77.86,0.85,-0.49,2.26,-0.01,-0.09,1.03,1000
17:51:26.525,-4.46,1.45,-77.83,-1.4,-1.52,2.8,-0.01,-0.08,1.02,1000
17:51:26.548,-4.52,1.2,-77.8,-3.9,-1.65,2.32,-0.01,-0.09,1.01,1000
17:51:26.548,-4.59,1.26,-77.78,-5.49,-0.85,0.55,-0.04,-0.07,1.02,1000
17:51:26.558,-4.33,1.45,-77.8,-5.73,0.3,-1.95,-0.04,-0.05,1.02,1000
17:51:26.569,-4.24,1.51,-77.83,-5.73,0.3,-3.41,-0.02,-0.07,1.03,1000
17:51:26.580,-4.21,1.45,-77.86,-3.48,-0.18,-3.48,-0.02,-0.07,1.02,1000
17:51:26.590,-4.2,1.35,-77.89,-1.89,-1.34,-2.38,-0.01,-0.08,1.04,1000
17:51:26.601,-4.34,0.98,-77.91,0.18,-1.95,-0.49,0.01,-0.09,1.03,1000
17:51:26.613,-4.46,0.64,-77.91,0.85,-1.65,0.73,0.0,-0.08,1.04,1000
17:51:26.624,-4.57,0.58,-77.9,1.65,-0.3,0.79,-0.02,-0.09,1.02,1000
17:51:26.637,-4.48,0.83,-77.9,1.28,0.73,-0.73,-0.03,-0.07,1.05,1000
17:51:26.652,-4.3,0.91,-77.91,0.3,0.79,-1.4,-0.01,-0.07,1.03,1000
17:51:26.657,-4.34,0.81,-77.92,-0.18,0.43,-0.73,-0.01,-0.08,1.03,1000
17:51:26.669,-4.3,0.75,-77.92,-1.16,-0.98,0.0,-0.01,-0.08,1.02,1000
17:51:26.679,-4.36,0.79,-77.92,-2.01,-2.13,0.37,-0.02,-0.08,1.03,1000
17:51:26.689,-4.37,0.8,-77.91,-2.56,-3.05,0.43,-0.02,-0.08,1.02,1000
17:51:26.702,-4.41,0.94,-77.91,-2.93,-3.48,0.06,-0.03,-0.08,1.04,1000
17:51:26.712,-4.32,1.0,-77.92,-2.2,-2.99,-0.18,-0.02,-0.07,1.03,1000
17:51:26.723,-4.3,0.82,-77.91,-2.07,-2.74,0.49,-0.0,-0.09,1.05,1000
17:51:26.735,-4.5,0.6,-77.9,-1.1,-0.67,1.22,0.0,-0.09,1.03,1000
17:51:26.753,-4.55,0.42,-77.89,-1.28,1.28,1.65,0.01,-0.09,1.04,1000
17:51:26.755,-4.8,0.4,-77.87,-0.55,3.54,1.1,-0.02,-0.11,1.01,1000
17:51:26.769,-4.64,0.86,-77.88,0.61,5.0,-1.65,-0.05,-0.05,1.05,1000
17:51:26.778,-4.48,1.1,-77.9,1.59,4.57,-2.99,-0.02,-0.08,1.04,1000
17:51:26.789,-4.47,0.97,-77.93,2.74,3.35,-2.01,-0.0,-0.09,1.04,1000
17:51:26.801,-4.46,0.89,-77.95,2.87,1.52,-1.16,-0.01,-0.08,1.04,1000
17:51:26.810,-4.47,0.88,-77.96,2.93,0.67,-1.04,-0.02,-0.08,1.03,1000
17:51:26.822,-4.54,0.84,-77.98,1.28,0.18,-1.52,-0.01,-0.08,1.02,1000
17:51:26.833,-4.61,0.85,-78.0,0.24,0.49,-2.62,-0.02,-0.09,1.02,1000
17:51:26.852,-4.5,0.98,-78.04,-1.59,0.3,-4.27,-0.02,-0.06,1.03,1000
17:51:26.857,-4.29,1.05,-78.09,-2.2,0.61,-4.88,-0.02,-0.07,1.02,1000
17:51:26.866,-4.26,1.08,-78.15,-2.26,-0.18,-5.3,-0.02,-0.07,1.02,1000
17:51:26.879,-4.14,1.17,-78.21,-1.95,-0.67,-5.49,-0.03,-0.07,1.02,1000
17:51:26.888,-4.24,1.28,-78.27,-1.16,-0.55,-5.37,-0.03,-0.08,1.03,1000
17:51:26.898,-4.24,1.33,-78.33,-0.18,-0.55,-4.88,-0.02,-0.08,1.03,1000
17:51:26.909,-4.28,1.27,-78.38,0.49,0.06,-3.72,-0.01,-0.08,1.03,1000
17:51:26.920,-4.36,1.17,-78.41,1.16,0.67,-2.2,-0.01,-0.08,1.03,1000
17:51:26.932,-4.48,1.15,-78.42,1.65,1.65,-0.61,-0.03,-0.09,1.02,1000
17:51:26.955,-4.49,1.36,-78.43,1.4,2.44,-0.79,-0.04,-0.08,1.03,1000
17:51:26.959,-4.36,1.57,-78.44,0.91,2.5,-0.61,-0.04,-0.07,1.03,1000
17:51:26.966,-4.34,1.68,-78.44,0.85,2.01,0.24,-0.04,-0.07,1.03,1000
17:51:26.976,-4.28,1.74,-78.43,0.55,1.1,0.91,-0.03,-0.07,1.02,1000
17:51:26.987,-4.3,1.72,-78.42,0.12,-0.55,1.77,-0.03,-0.09,1.02,1000
17:51:26.999,-4.38,1.76,-78.39,-0.3,-1.71,2.32,-0.04,-0.08,1.02,1000
17:51:27.009,-4.32,1.72,-78.37,-0.61,-2.38,2.32,-0.03,-0.07,1.02,1000
17:51:27.020,-4.37,1.6,-78.34,-1.52,-2.68,2.5,-0.02,-0.08,1.03,1000
17:51:27.031,-4.32,1.46,-78.31,-2.26,-2.32,2.38,-0.02,-0.07,1.02,1000
17:51:27.042,-4.3,1.36,-78.29,-3.17,-1.71,1.59,-0.02,-0.07,1.02,1000
17:51:27.068,-4.22,1.37,-78.28,-4.02,-1.16,0.98,-0.03,-0.06,1.01,1000
17:51:27.069,-4.09,1.37,-78.27,-5.43,-0.79,0.0,-0.02,-0.05,1.02,1000
17:51:27.075,-4.04,1.36,-78.28,-7.13,-1.04,-0.61,-0.02,-0.08,1.0,1000
17:51:27.086,-4.24,1.24,-78.28,-9.33,-1.28,-0.91,-0.02,-0.09,1.01,1000
17:51:27.096,-4.63,1.34,-78.3,-9.63,-1.34,-1.4,-0.04,-0.09,1.0,1000
17:51:27.108,-4.84,1.7,-78.32,-8.78,-1.59,-2.56,-0.06,-0.09,1.02,1000
17:51:27.119,-5.04,2.09,-78.35,-6.34,-2.99,-2.68,-0.06,-0.12,1.03,1000
17:51:27.130,-5.43,2.42,-78.38,-2.87,-4.27,-1.77,-0.07,-0.13,1.04,1000
17:51:27.144,-5.6,2.74,-78.38,1.65,-5.49,0.43,-0.07,-0.1,1.07,1000
17:51:27.165,-5.49,2.67,-78.35,5.0,-7.01,5.06,-0.03,-0.1,1.08,1000
17:51:27.165,-5.47,2.09,-78.26,7.8,-8.17,11.65,-0.0,-0.11,1.06,1000
17:51:27.174,-5.47,1.59,-78.11,9.21,-7.99,16.59,0.01,-0.1,1.04,1000
17:51:27.186,-5.32,1.09,-77.89,8.17,-5.49,19.7,0.0,-0.08,1.03,1000
17:51:27.196,-4.97,0.87,-77.67,3.96,-1.83,19.02,-0.01,-0.07,1.02,1000
17:51:27.206,-4.77,0.79,-77.48,-0.73,1.89,16.4,-0.01,-0.07,1.0,1000
17:51:27.221,-4.66,0.87,-77.32,-5.24,4.57,12.26,-0.02,-0.06,1.0,1000
17:51:27.230,-4.66,1.05,-77.21,-6.83,5.24,7.62,-0.04,-0.08,0.97,1000
17:51:27.249,-4.61,1.64,-77.16,-7.5,3.23,2.62,-0.06,-0.08,1.03,1000
17:51:27.252,-4.33,1.72,-77.15,-6.52,-0.49,0.67,-0.02,-0.06,1.04,1000
17:51:27.269,-4.52,1.31,-77.13,-3.96,-4.45,1.83,0.01,-0.1,1.04,1000
17:51:27.272,-4.75,0.75,-77.1,-1.34,-7.99,4.21,0.03,-0.1,1.03,1000
17:51:27.295,-4.76,0.14,-77.04,0.61,-8.54,6.04,0.03,-0.08,1.03,1000
17:51:27.295,-4.79,-0.18,-76.97,0.49,-6.65,5.43,0.01,-0.1,1.01,1000
17:51:27.306,-4.81,-0.24,-76.93,-1.34,-3.35,2.38,0.0,-0.08,1.02,1000
17:51:27.318,-4.58,-0.24,-76.92,-2.74,0.12,-0.61,-0.0,-0.07,1.0,1000
17:51:27.328,-4.48,-0.0,-76.95,-4.09,2.13,-3.78,-0.02,-0.07,1.02,1000
17:51:27.339,-4.34,0.21,-77.0,-3.9,2.8,-5.43,-0.01,-0.06,1.01,1000
17:51:27.351,-4.33,0.24,-77.06,-3.48,2.26,-5.06,-0.0,-0.09,1.03,1000
17:51:27.369,-4.53,0.2,-77.11,-2.2,0.73,-3.48,-0.0,-0.09,1.02,1000
17:51:27.372,-4.65,0.1,-77.13,-1.16,-1.04,-1.46,0.0,-0.09,1.04,1000
17:51:27.383,-4.87,0.06,-77.14,-0.98,-2.13,0.55,-0.0,-0.1,1.02,1000
17:51:27.393,-4.94,0.07,-77.13,-1.46,-2.2,1.34,-0.0,-0.09,1.03,1000
17:51:27.405,-5.02,0.14,-77.11,-2.07,-1.89,1.65,-0.02,-0.1,1.02,1000
17:51:27.415,-5.08,0.48,-77.1,-2.07,-1.34,0.18,-0.04,-0.08,1.02,1000
17:51:27.427,-4.88,0.73,-77.1,-2.38,-1.46,-0.3,-0.02,-0.08,1.03,1000
17:51:27.437,-4.99,0.71,-77.1,-2.26,-1.95,0.0,-0.01,-0.1,1.04,1000
17:51:27.452,-5.12,0.56,-77.09,-1.46,-2.26,1.52,0.0,-0.1,1.03,1000
17:51:27.471,-5.24,0.44,-77.06,-1.59,-2.01,2.44,0.0,-0.11,1.04,1000
17:51:27.471,-5.34,0.3,-77.03,-1.46,-0.73,3.05,0.0,-0.1,1.03,1000
17:51:27.482,-5.32,0.23,-77.0,-2.44,0.79,2.74,-0.0,-0.09,1.04,1000
17:51:27.494,-5.29,0.27,-76.98,-3.6,2.38,1.59,-0.01,-0.09,1.02,1000
17:51:27.505,-5.2,0.4,-76.97,-4.45,3.17,0.12,-0.02,-0.08,1.02,1000
17:51:27.516,-5.08,0.58,-76.98,-4.88,3.17,-1.22,-0.02,-0.08,1.02,1000
17:51:27.526,-5.1,0.69,-77.0,-4.82,1.65,-2.01,-0.02,-0.09,1.03,1000
17:51:27.538,-5.17,0.77,-77.02,-4.33,0.0,-2.2,-0.01,-0.1,1.03,1000
17:51:27.548,-5.3,0.71,-77.04,-3.48,-1.65,-1.71,-0.01,-0.11,1.02,1000
17:51:27.559,-5.4,0.78,-77.06,-2.44,-2.44,-1.77,-0.03,-0.1,1.03,1000
17:51:27.574,-5.31,0.9,-77.08,-0.98,-1.77,-2.01,-0.02,-0.09,1.03,1000
17:51:27.582,-5.34,0.9,-77.1,-0.55,-1.16,-1.52,-0.01,-0.1,1.03,1000
17:51:27.591,-5.4,0.76,-77.11,0.06,0.3,-0.3,0.0,-0.1,1.02,1000
17:51:27.602,-5.54,0.59,-77.11,0.24,1.89,0.73,0.0,-0.11,1.03,1000
17:51:27.615,-5.65,0.53,-77.1,0.24,3.48,1.22,-0.01,-0.11,1.01,1000
17:51:27.625,-5.65,0.85,-77.08,0.06,4.02,0.43,-0.05,-0.09,1.03,1000
17:51:27.635,-5.45,1.18,-77.09,0.49,3.48,-0.24,-0.03,-0.08,1.02,1000
17:51:27.646,-5.45,1.17,-77.09,0.12,1.4,0.37,-0.01,-0.1,1.04,1000
17:51:27.658,-5.53,1.01,-77.07,0.0,-0.55,1.89,-0.01,-0.1,1.02,1000
17:51:27.672,-5.53,0.84,-77.05,-0.55,-2.2,3.17,-0.01,-0.1,1.03,1000
17:51:27.682,-5.54,0.74,-77.01,-1.89,-2.56,3.17,-0.01,-0.1,1.01,1000
17:51:27.693,-5.47,0.78,-76.98,-3.05,-2.13,2.07,-0.02,-0.08,1.02,1000
17:51:27.701,-5.33,0.82,-76.97,-4.39,-1.16,0.79,-0.01,-0.08,1.01,1000
17:51:27.712,-5.27,0.65,-76.96,-5.61,-0.12,0.43,0.01,-0.09,1.02,1000
17:51:27.723,-5.31,0.4,-76.96,-6.28,0.79,0.3,0.01,-0.09,1.01,1000
17:51:27.734,-5.41,0.31,-76.96,-6.4,1.52,0.06,-0.01,-0.1,1.02,1000
17:51:27.746,-5.46,0.39,-76.96,-6.59,1.52,-0.67,-0.01,-0.09,1.02,1000
17:51:27.757,-5.54,0.45,-76.97,-6.4,1.04,-1.4,-0.01,-0.11,1.02,1000
17:51:27.774,-5.73,0.67,-76.99,-4.45,0.24,-2.38,-0.04,-0.1,1.02,1000
17:51:27.779,-5.67,0.99,-77.03,-2.44,-0.91,-3.41,-0.03,-0.1,1.04,1000
17:51:27.791,-5.79,1.07,-77.06,-0.24,-2.2,-2.87,-0.02,-0.12,1.04,1000
17:51:27.801,-5.98,0.94,-77.08,2.13,-2.99,-1.1,-0.0,-0.11,1.05,1000
17:51:27.812,-5.94,0.67,-77.08,2.8,-3.35,1.52,0.0,-0.11,1.05,1000
17:51:27.824,-6.05,0.45,-77.05,2.8,-2.44,3.23,0.0,-0.12,1.02,1000
17:51:27.833,-5.92,0.3,-77.01,1.22,-0.85,3.48,0.0,-0.09,1.02,1000
17:51:27.845,-5.72,0.19,-76.98,-2.01,1.52,2.93,0.0,-0.09,1.02,1000
17:51:27.856,-5.76,0.14,-76.95,-4.7,3.23,1.28,-0.0,-0.1,1.0,1000
17:51:27.880,-5.6,0.16,-76.96,-8.35,3.9,-0.98,0.0,-0.09,1.02,1000
17:51:27.881,-5.67,0.26,-76.98,-11.28,3.72,-2.99,-0.01,-0.1,1.0,1000
17:51:27.889,-5.7,0.4,-77.02,-13.17,2.87,-4.88,-0.02,-0.09,1.02,1000
17:51:27.900,-5.77,0.53,-77.09,-14.02,0.67,-6.22,-0.02,-0.11,1.02,1000
17:51:27.910,-5.97,0.78,-77.16,-12.8,-1.59,-7.07,-0.03,-0.11,1.04,1000
17:51:27.923,-6.09,0.99,-77.24,-11.4,-3.96,-7.74,-0.03,-0.11,1.04,1000
17:51:27.932,-6.35,0.96,-77.32,-8.96,-5.49,-7.01,-0.02,-0.14,1.05,1000
17:51:27.943,-6.67,0.84,-77.39,-6.59,-6.1,-5.49,-0.01,-0.13,1.05,1000
17:51:27.993,-6.86,0.72,-77.44,-4.27,-5.37,-4.09,-0.0,-0.15,1.05,1000
17:51:28.005,-7.12,0.63,-77.47,-1.71,-3.84,-2.56,-0.02,-0.14,1.05,1000
17:51:28.005,-7.12,0.74,-77.5,1.28,-1.28,-2.01,-0.03,-0.12,1.05,1000
17:51:28.006,-7.1,0.92,-77.52,3.78,0.24,-1.77,-0.03,-0.13,1.05,1000
17:51:28.006,-7.01,1.03,-77.53,6.1,1.77,-1.1,-0.02,-0.12,1.05,1000
17:51:28.010,-6.9,1.05,-77.54,8.72,2.44,-0.06,-0.02,-0.14,1.04,1000
17:51:28.020,-6.94,1.15,-77.54,9.82,2.13,0.43,-0.02,-0.13,1.06,1000
17:51:28.033,-6.73,1.12,-77.53,10.0,1.65,1.52,-0.01,-0.11,1.05,1000
17:51:28.044,-6.67,0.92,-77.5,8.72,1.22,2.87,-0.0,-0.13,1.05,1000
17:51:28.053,-6.64,0.76,-77.47,7.01,1.04,3.17,-0.01,-0.11,1.03,1000
17:51:28.065,-6.41,0.74,-77.43,4.63,1.34,2.26,-0.01,-0.1,1.03,1000
17:51:28.086,-6.28,0.77,-77.42,1.95,1.77,0.79,-0.01,-0.11,1.02,1000
17:51:28.086,-6.09,0.78,-77.42,-0.3,2.13,-0.79,-0.01,-0.09,1.01,1000
17:51:28.097,-5.9,0.78,-77.43,-2.2,1.77,-1.59,-0.01,-0.09,1.01,1000
17:51:28.108,-5.75,0.75,-77.45,-3.41,1.22,-2.38,-0.0,-0.09,1.01,1000
17:51:28.120,-5.62,0.61,-77.48,-4.09,0.79,-2.74,-0.0,-0.1,1.01,1000
17:51:28.131,-5.69,0.58,-77.52,-4.45,0.73,-3.48,-0.01,-0.1,1.01,1000
17:51:28.141,-5.61,0.65,-77.56,-3.6,1.4,-4.02,-0.02,-0.09,1.01,1000
17:51:28.152,-5.56,0.92,-77.6,-2.87,1.65,-4.57,-0.04,-0.1,1.02,1000
17:51:28.165,-5.52,1.17,-77.66,-1.04,1.71,-4.76,-0.03,-0.1,1.02,1000
17:51:28.187,-5.62,1.21,-77.71,0.55,1.46,-3.78,-0.02,-0.11,1.03,1000
17:51:28.190,-5.79,1.16,-77.74,1.95,0.79,-1.95,-0.01,-0.12,1.02,1000
17:51:28.198,-5.92,1.14,-77.74,3.54,0.3,-0.06,-0.02,-0.11,1.02,1000
17:51:28.209,-5.99,1.19,-77.74,4.02,-0.18,1.16,-0.02,-0.12,1.02,1000
17:51:28.218,-5.98,1.31,-77.72,4.09,-0.3,1.34,-0.03,-0.11,1.03,1000
17:51:28.230,-5.98,1.38,-77.71,3.48,-0.12,1.77,-0.03,-0.11,1.02,1000
17:51:28.240,-6.04,1.3,-77.69,2.2,0.37,1.83,-0.01,-0.12,1.03,1000
17:51:28.253,-6.11,1.24,-77.67,0.79,0.67,1.95,-0.02,-0.11,1.02,1000
17:51:28.263,-6.27,1.3,-77.65,0.79,0.67,1.65,-0.04,-0.12,1.01,1000
17:51:28.276,-6.19,1.59,-77.64,0.55,-0.06,0.24,-0.04,-0.1,1.04,1000
17:51:28.287,-6.06,1.6,-77.64,1.04,-1.28,0.55,-0.02,-0.1,1.04,1000
17:51:28.297,-6.04,1.36,-77.62,2.01,-2.32,2.26,-0.01,-0.11,1.04,1000
17:51:28.306,-6.06,1.14,-77.59,2.74,-2.93,3.6,-0.01,-0.12,1.03,1000
17:51:28.318,-6.15,1.01,-77.54,3.6,-2.5,4.15,-0.02,-0.11,1.03,1000
17:51:28.329,-6.04,0.97,-77.5,2.99,-1.59,3.9,-0.01,-0.1,1.02,1000
17:51:28.340,-5.91,0.79,-77.45,1.65,-0.73,3.96,0.0,-0.1,1.02,1000
17:51:28.350,-5.87,0.53,-77.41,0.12,0.55,4.09,0.01,-0.1,1.0,1000
17:51:28.362,-5.83,0.41,-77.36,-0.49,1.77,3.66,-0.01,-0.1,0.99,1000
17:51:28.373,-5.73,0.57,-77.33,-1.52,2.62,2.13,-0.03,-0.09,1.01,1000
17:51:28.393,-5.47,0.75,-77.32,-1.83,2.56,0.91,-0.02,-0.08,1.01,1000
17:51:28.395,-5.48,0.72,-77.31,-1.89,2.07,0.67,-0.01,-0.1,1.02,1000
17:51:28.406,-5.52,0.59,-77.3,-1.71,1.1,1.22,-0.0,-0.1,1.01,1000
17:51:28.416,-5.56,0.49,-77.29,-1.89,0.55,1.46,-0.0,-0.1,1.01,1000
17:51:28.429,-5.67,0.42,-77.27,-2.07,0.18,1.83,-0.0,-0.1,1.0,1000
17:51:28.439,-5.67,0.42,-77.25,-2.68,0.06,0.98,-0.01,-0.1,1.01,1000
17:51:28.449,-5.66,0.52,-77.25,-3.84,0.61,-0.3,-0.02,-0.1,1.01,1000
17:51:28.460,-5.65,0.55,-77.26,-4.45,1.16,-1.04,-0.01,-0.1,1.01,1000
17:51:28.472,-5.76,0.51,-77.27,-5.18,1.1,-1.34,-0.01,-0.11,1.01,1000
17:51:28.496,-5.81,0.51,-77.29,-5.24,0.73,-1.28,-0.01,-0.1,1.01,1000
17:51:28.497,-5.89,0.67,-77.3,-4.82,0.18,-1.89,-0.03,-0.11,1.0,1000
17:51:28.504,-5.83,0.99,-77.33,-4.7,-0.98,-2.8,-0.04,-0.09,1.02,1000
17:51:28.518,-5.85,1.17,-77.36,-4.7,-2.38,-2.74,-0.03,-0.11,1.02,1000
17:51:28.526,-6.0,1.16,-77.39,-3.66,-3.48,-1.95,-0.02,-0.12,1.03,1000
17:51:28.537,-6.1,0.98,-77.4,-2.56,-3.9,-0.55,-0.0,-0.12,1.03,1000
17:51:28.553,-6.24,0.8,-77.4,-1.52,-3.48,1.04,-0.01,-0.12,1.03,1000
17:51:28.560,-6.33,0.68,-77.39,-1.46,-1.95,1.46,-0.01,-0.12,1.02,1000
17:51:28.576,-6.38,0.67,-77.37,-1.4,0.49,0.73,-0.02,-0.12,1.02,1000
17:51:28.583,-6.36,0.8,-77.37,-2.38,2.38,-0.3,-0.03,-0.11,1.03,1000
17:51:28.597,-6.26,0.97,-77.38,-2.26,3.54,-1.52,-0.02,-0.1,1.02,1000
17:51:28.606,-6.24,1.07,-77.4,-2.38,3.29,-1.65,-0.02,-0.11,1.03,1000
17:51:28.615,-6.28,1.1,-77.42,-2.32,2.13,-1.34,-0.02,-0.12,1.03,1000
17:51:28.625,-6.4,1.04,-77.42,-1.77,0.12,-0.24,-0.01,-0.13,1.03,1000
17:51:28.637,-6.55,1.04,-77.42,-1.77,-1.4,0.18,-0.02,-0.12,1.03,1000
17:51:28.648,-6.58,1.07,-77.42,-1.89,-2.32,0.37,-0.02,-0.12,1.03,1000
17:51:28.661,-6.62,1.11,-77.42,-2.2,-2.68,0.12,-0.02,-0.12,1.03,1000
17:51:28.670,-6.53,1.13,-77.42,-2.07,-2.68,0.43,-0.02,-0.11,1.03,1000
17:51:28.681,-6.49,1.02,-77.41,-2.13,-2.13,1.16,-0.01,-0.12,1.03,1000
17:51:28.698,-6.5,0.89,-77.39,-1.34,-1.1,1.71,-0.01,-0.11,1.02,1000
17:51:28.703,-6.45,0.79,-77.37,-0.98,0.49,2.01,-0.01,-0.11,1.03,1000
17:51:28.713,-6.49,0.82,-77.35,-0.12,2.5,1.65,-0.02,-0.12,1.02,1000
17:51:28.725,-6.35,0.95,-77.34,1.4,4.02,0.73,-0.02,-0.1,1.03,1000
17:51:28.737,-6.23,1.06,-77.34,2.68,4.15,-0.37,-0.02,-0.12,1.03,1000
17:51:28.747,-6.24,1.14,-77.35,4.39,3.66,-1.4,-0.02,-0.11,1.04,1000
17:51:28.757,-6.27,1.13,-77.37,5.55,2.38,-1.77,-0.02,-0.13,1.04,1000
17:51:28.769,-6.47,1.2,-77.39,6.83,0.73,-2.99,-0.03,-0.14,1.04,1000
17:51:28.783,-6.48,1.29,-77.43,7.38,-1.4,-3.48,-0.02,-0.12,1.05,1000
17:51:28.799,-6.48,1.29,-77.47,7.87,-3.66,-3.17,-0.03,-0.13,1.03,1000
17:51:28.801,-6.47,1.34,-77.5,8.41,-5.61,-2.62,-0.03,-0.12,1.04,1000
17:51:28.815,-6.41,1.14,-77.52,8.11,-6.95,-0.98,-0.0,-0.11,1.04,1000
17:51:28.824,-6.25,0.84,-77.52,6.89,-6.59,1.4,0.0,-0.11,1.03,1000
17:51:28.835,-6.01,0.67,-77.49,4.57,-5.3,2.93,-0.01,-0.1,1.03,1000
17:51:28.847,-5.85,0.5,-77.45,2.2,-2.56,3.6,-0.0,-0.1,1.01,1000
17:51:28.857,-5.7,0.48,-77.41,-0.61,0.18,3.35,-0.01,-0.09,1.01,1000
17:51:28.869,-5.43,0.48,-77.38,-3.23,2.99,2.74,-0.01,-0.08,1.0,1000
17:51:28.878,-5.33,0.46,-77.35,-5.37,4.51,2.5,-0.0,-0.09,1.01,1000
17:51:28.910,-5.33,0.48,-77.32,-5.79,4.88,1.95,-0.01,-0.09,1.0,1000
17:51:28.910,-5.36,0.67,-77.31,-5.79,4.57,0.67,-0.02,-0.09,1.02,1000
17:51:28.912,-5.42,0.9,-77.31,-5.24,2.8,-0.43,-0.03,-0.11,1.01,1000
17:51:28.923,-5.63,1.25,-77.32,-2.8,0.61,-2.07,-0.05,-0.1,1.02,1000
17:51:28.933,-5.59,1.54,-77.35,-0.37,-1.77,-2.87,-0.04,-0.1,1.04,1000
17:51:28.946,-5.73,1.46,-77.38,1.65,-3.6,-2.01,-0.01,-0.12,1.04,1000
17:51:28.956,-5.89,1.17,-77.4,3.23,-4.15,-0.61,0.0,-0.12,1.03,1000
17:51:28.966,-6.04,0.85,-77.39,3.41,-3.54,0.79,0.0,-0.12,1.03,1000
17:51:28.978,-6.18,0.62,-77.38,2.44,-1.22,1.1,-0.0,-0.11,1.02,1000
17:51:28.989,-6.14,0.61,-77.38,0.91,1.22,0.18,-0.02,-0.1,1.02,1000
17:51:29.008,-5.94,0.78,-77.38,-0.85,3.41,-1.34,-0.02,-0.09,1.02,1000
17:51:29.013,-5.75,0.88,-77.4,-2.07,4.09,-2.13,-0.02,-0.09,1.02,1000
17:51:29.021,-5.74,0.96,-77.43,-2.8,4.02,-2.56,-0.02,-0.1,1.02,1000
17:51:29.033,-5.74,1.04,-77.46,-2.62,3.29,-2.68,-0.02,-0.1,1.02,1000
17:51:29.044,-5.8,1.1,-77.48,-2.62,1.77,-2.13,-0.02,-0.11,1.03,1000
17:51:29.063,-5.96,1.22,-77.51,-1.89,0.37,-2.01,-0.04,-0.11,1.02,1000
17:51:29.069,-5.97,1.47,-77.53,-1.22,-1.1,-2.56,-0.05,-0.11,1.04,1000
17:51:29.076,-5.97,1.6,-77.56,0.0,-2.68,-2.5,-0.03,-0.11,1.03,1000
17:51:29.088,-6.03,1.51,-77.58,0.91,-3.54,-1.34,-0.02,-0.11,1.04,1000
17:51:29.108,-6.13,1.34,-77.59,2.56,-3.72,0.06,-0.02,-0.12,1.02,1000
17:51:29.110,-6.12,1.31,-77.58,3.35,-3.05,0.67,-0.02,-0.11,1.03,1000
17:51:29.123,-6.11,1.22,-77.57,3.05,-1.83,1.4,-0.01,-0.12,1.02,1000
17:51:29.132,-6.12,1.2,-77.55,3.05,0.18,1.52,-0.03,-0.1,1.02,1000
17:51:29.142,-5.93,1.27,-77.54,2.32,1.71,1.28,-0.02,-0.1,1.02,1000
17:51:29.155,-5.93,1.17,-77.52,1.83,2.74,1.65,-0.01,-0.11,1.02,1000
17:51:29.166,-5.9,1.15,-77.5,0.73,3.17,1.52,-0.02,-0.1,1.02,1000
17:51:29.176,-5.82,1.18,-77.48,-0.06,2.56,1.65,-0.02,-0.1,1.02,1000
17:51:29.186,-5.77,1.33,-77.47,-0.98,1.34,1.4,-0.03,-0.09,1.02,1000
17:51:29.199,-5.67,1.38,-77.45,-1.77,-0.12,1.04,-0.02,-0.1,1.02,1000
17:51:29.211,-5.69,1.23,-77.44,-3.11,-1.59,1.46,-0.01,-0.1,1.03,1000
17:51:29.220,-5.71,1.06,-77.42,-4.09,-2.2,1.59,-0.01,-0.1,1.02,1000
17:51:29.233,-5.75,0.87,-77.41,-4.94,-2.01,1.77,-0.01,-0.11,1.02,1000
17:51:29.242,-5.87,0.79,-77.39,-5.0,-0.98,1.1,-0.01,-0.1,1.02,1000
17:51:29.252,-5.84,0.89,-77.38,-4.21,0.0,-0.18,-0.04,-0.09,1.02,1000
17:51:29.264,-5.7,1.18,-77.4,-3.35,0.3,-1.83,-0.03,-0.1,1.03,1000
17:51:29.274,-5.65,1.21,-77.42,-1.89,0.43,-2.26,-0.02,-0.1,1.03,1000
17:51:29.285,-5.77,1.05,-77.44,0.0,0.49,-1.28,-0.01,-0.12,1.03,1000
17:51:29.297,-5.9,0.98,-77.45,1.28,0.79,-0.67,-0.01,-0.11,1.03,1000
17:51:29.316,-6.03,1.02,-77.46,1.71,1.28,-0.61,-0.02,-0.12,1.02,1000
17:51:29.320,-6.09,1.21,-77.47,1.65,1.22,-0.98,-0.03,-0.11,1.03,1000
17:51:29.330,-6.02,1.3,-77.48,1.28,0.79,-1.4,-0.03,-0.11,1.03,1000
17:51:29.340,-6.09,1.3,-77.49,0.85,-0.3,-1.04,-0.03,-0.12,1.03,1000
17:51:29.352,-6.15,1.34,-77.51,0.24,-1.34,-0.91,-0.02,-0.11,1.03,1000
17:51:29.362,-6.23,1.3,-77.51,-1.1,-2.2,-0.55,-0.02,-0.12,1.03,1000
17:51:29.375,-6.32,1.19,-77.52,-2.44,-2.44,-0.06,-0.02,-0.11,1.02,1000
17:51:29.385,-6.26,1.13,-77.51,-2.74,-2.26,0.12,-0.02,-0.11,1.02,1000
17:51:29.396,-6.21,1.09,-77.51,-3.54,-1.34,0.3,-0.02,-0.1,1.02,1000
17:51:29.417,-6.15,1.08,-77.51,-3.54,-0.06,0.12,-0.02,-0.1,1.03,1000
17:51:29.419,-6.1,1.1,-77.51,-3.05,1.16,-0.06,-0.02,-0.1,1.02,1000
17:51:29.428,-5.98,1.24,-77.52,-1.83,1.71,-0.79,-0.03,-0.09,1.02,1000
17:51:29.440,-5.85,1.41,-77.53,-0.55,1.89,-1.22,-0.03,-0.1,1.02,1000
17:51:29.452,-5.93,1.59,-77.54,1.46,1.4,-1.52,-0.05,-0.11,1.02,1000
17:51:29.463,-5.87,1.78,-77.56,2.87,0.91,-1.4,-0.04,-0.1,1.03,1000
17:51:29.472,-5.97,1.7,-77.57,3.17,-0.06,0.0,-0.02,-0.12,1.03,1000
17:51:29.484,-6.12,1.43,-77.56,3.17,-0.43,1.52,-0.0,-0.12,1.02,1000
17:51:29.495,-6.2,1.2,-77.53,1.83,-0.24,3.05,-0.01,-0.12,1.02,1000
17:51:29.526,-6.24,1.09,-77.49,-0.12,0.67,3.29,-0.01,-0.11,1.01,1000
17:51:29.526,-6.17,1.06,-77.46,-2.74,2.13,2.44,-0.02,-0.1,1.02,1000
17:51:29.528,-6.03,1.02,-77.44,-4.7,3.35,1.59,-0.01,-0.09,1.0,1000
17:51:29.540,-5.89,0.88,-77.42,-6.16,3.84,1.16,-0.01,-0.09,1.01,1000
17:51:29.550,-5.74,0.85,-77.41,-7.2,3.72,0.43,-0.02,-0.1,1.0,1000
17:51:29.560,-5.81,0.88,-77.42,-8.72,3.35,-0.79,-0.01,-0.1,1.0,1000
17:51:29.571,-5.89,0.89,-77.43,-8.66,2.62,-1.65,-0.03,-0.1,1.0,1000
17:51:29.637,-5.89,1.01,-77.45,-8.66,1.46,-2.87,-0.02,-0.1,1.01,1000
17:51:29.637,-6.0,1.02,-77.49,-7.68,0.43,-3.48,-0.01,-0.11,1.01,1000
17:51:29.637,-6.17,1.13,-77.53,-5.43,-0.67,-4.39,-0.04,-0.11,1.01,1000
17:51:29.637,-6.22,1.45,-77.59,-3.11,-1.65,-5.85,-0.04,-0.12,1.03,1000
17:51:29.637,-6.44,1.59,-77.66,-0.12,-2.62,-6.34,-0.04,-0.14,1.03,1000
17:51:29.640,-6.71,1.74,-77.73,3.66,-3.78,-6.04,-0.04,-0.15,1.04,1000
17:51:29.648,-6.62,1.63,-77.79,5.98,-4.51,-4.15,-0.02,-0.12,1.06,1000
17:51:29.660,-6.75,1.32,-77.81,7.8,-4.21,-1.22,-0.0,-0.14,1.04,1000
17:51:29.672,-6.86,0.91,-77.81,8.23,-2.93,1.77,0.01,-0.13,1.04,1000
17:51:29.682,-6.79,0.64,-77.78,6.77,-0.49,3.29,0.0,-0.13,1.02,1000
17:51:29.692,-6.74,0.6,-77.74,4.15,3.23,3.05,-0.01,-0.12,1.02,1000
17:51:29.704,-6.61,0.65,-77.72,1.16,5.98,1.71,-0.01,-0.11,1.01,1000
17:51:29.724,-6.59,0.81,-77.71,-1.95,7.44,0.24,-0.03,-0.12,1.0,1000
17:51:29.726,-6.41,1.24,-77.72,-5.06,6.52,-2.38,-0.04,-0.09,1.02,1000
17:51:29.739,-6.2,1.48,-77.76,-6.83,3.9,-3.29,-0.04,-0.1,1.02,1000
17:51:29.751,-6.25,1.57,-77.79,-7.26,0.43,-3.23,-0.03,-0.11,1.03,1000
17:51:29.758,-6.37,1.54,-77.83,-7.26,-3.17,-2.68,-0.03,-0.12,1.03,1000
17:51:29.770,-6.6,1.48,-77.85,-6.95,-5.49,-2.01,-0.03,-0.13,1.04,1000
17:51:29.781,-6.81,1.37,-77.87,-6.4,-5.91,-1.34,-0.02,-0.13,1.03,1000
17:51:29.792,-7.01,1.43,-77.89,-4.45,-5.12,-1.22,-0.05,-0.13,1.03,1000
17:51:29.806,-6.9,1.77,-77.91,-2.2,-3.6,-2.38,-0.05,-0.11,1.05,1000
17:51:29.833,-6.8,1.77,-77.93,0.24,-2.62,-1.65,-0.02,-0.12,1.05,1000
17:51:29.833,-6.9,1.57,-77.93,3.96,-1.46,0.67,-0.02,-0.13,1.04,1000
17:51:29.835,-6.79,1.45,-77.91,6.28,-0.79,2.56,-0.02,-0.12,1.04,1000
17:51:29.848,-6.65,1.28,-77.87,8.05,0.0,4.51,-0.01,-0.12,1.03,1000
17:51:29.857,-6.52,1.11,-77.81,7.8,1.1,5.43,-0.01,-0.11,1.03,1000
17:51:29.868,-6.38,1.0,-77.75,6.28,1.83,5.3,-0.01,-0.11,1.02,1000
17:51:29.879,-6.25,1.01,-77.7,4.09,2.68,3.78,-0.02,-0.11,1.0,1000
17:51:29.890,-6.08,1.12,-77.67,1.71,2.74,1.89,-0.03,-0.1,1.01,1000
17:51:29.901,-6.0,1.29,-77.67,0.12,1.77,-0.55,-0.04,-0.1,1.0,1000
17:51:29.914,-5.9,1.48,-77.68,-1.04,-0.55,-2.62,-0.04,-0.1,1.02,1000
17:51:29.928,-5.83,1.51,-77.72,-1.46,-2.8,-3.48,-0.02,-0.11,1.01,1000
17:51:29.934,-5.95,1.28,-77.75,-1.16,-4.76,-2.93,-0.0,-0.12,1.02,1000
17:51:29.945,-6.14,0.95,-77.78,-0.37,-4.88,-1.77,0.0,-0.12,1.01,1000
17:51:29.956,-6.22,0.91,-77.8,0.0,-3.48,-2.38,-0.03,-0.11,1.02,1000
17:51:29.969,-6.21,1.03,-77.83,0.85,-1.28,-3.17,-0.03,-0.11,1.01,1000
17:51:29.979,-6.16,1.2,-77.87,1.52,0.49,-4.09,-0.03,-0.11,1.04,1000
17:51:29.990,-6.15,1.23,-77.91,2.2,1.28,-3.66,-0.01,-0.1,1.02,1000
17:51:30.000,-6.06,1.09,-77.94,3.05,1.4,-1.65,-0.01,-0.12,1.04,1000
17:51:30.013,-6.17,0.94,-77.95,2.32,0.61,0.61,-0.0,-0.13,1.02,1000
17:51:30.040,-6.15,0.9,-77.93,1.65,0.24,1.77,-0.02,-0.1,1.02,1000
17:51:30.040,-6.09,0.95,-77.91,-0.85,-0.49,1.83,-0.02,-0.11,1.02,1000
17:51:30.045,-6.11,0.95,-77.89,-3.48,-0.61,1.22,-0.02,-0.11,1.02,1000
17:51:30.057,-6.06,0.88,-77.88,-6.1,-0.49,0.61,-0.01,-0.1,1.02,1000
17:51:30.067,-6.06,0.77,-77.88,-8.72,-0.18,-0.18,-0.01,-0.1,1.02,1000
17:51:30.078,-6.31,0.76,-77.89,-9.15,0.49,-1.34,-0.02,-0.12,1.0,1000
17:51:30.089,-6.31,1.09,-77.91,-9.15,0.12,-3.11,-0.05,-0.1,1.04,1000
17:51:30.100,-6.2,1.36,-77.96,-7.62,-0.61,-4.45,-0.04,-0.11,1.02,1000
17:51:30.111,-6.32,1.42,-78.0,-5.06,-1.46,-4.15,-0.03,-0.12,1.04,1000
17:51:30.132,-6.41,1.36,-78.04,-1.52,-2.62,-2.5,-0.02,-0.12,1.03,1000
17:51:30.132,-6.58,1.2,-78.06,0.85,-2.68,-0.91,-0.01,-0.14,1.05,1000
17:51:30.143,-6.74,1.18,-78.06,2.62,-1.89,-0.12,-0.03,-0.12,1.03,1000
17:51:30.155,-6.66,1.26,-78.06,3.54,-0.79,0.43,-0.03,-0.12,1.04,1000
17:51:30.166,-6.67,1.3,-78.05,2.87,0.3,0.49,-0.02,-0.13,1.03,1000
17:51:30.179,-6.69,1.4,-78.05,2.68,0.85,-0.24,-0.04,-0.12,1.03,1000
17:51:30.187,-6.62,1.51,-78.05,2.07,0.91,0.0,-0.03,-0.11,1.03,1000
17:51:30.199,-6.65,1.54,-78.05,1.95,-0.06,0.24,-0.03,-0.12,1.01,1000
17:51:30.209,-6.53,1.65,-78.05,1.52,-1.52,0.37,-0.04,-0.11,1.03,1000
17:51:30.221,-6.39,1.66,-78.04,0.98,-2.99,1.28,-0.03,-0.11,1.02,1000
17:51:30.237,-6.34,1.51,-78.02,1.1,-3.48,2.38,-0.02,-0.11,1.02,1000
17:51:30.242,-6.33,1.29,-77.99,0.49,-2.99,3.17,-0.01,-0.11,1.02,1000
17:51:30.253,-6.35,1.15,-77.95,-0.3,-1.34,3.29,-0.02,-0.11,1.02,1000
17:51:30.267,-6.27,1.16,-77.92,-1.52,0.18,2.44,-0.02,-0.1,1.02,1000
17:51:30.275,-6.2,1.07,-77.89,-2.56,1.4,2.26,-0.01,-0.11,1.01,1000
17:51:30.288,-6.24,1.01,-77.87,-3.84,2.32,1.46,-0.01,-0.11,1.01,1000
17:51:30.297,-6.26,0.97,-77.86,-4.63,2.62,1.28,-0.01,-0.11,1.01,1000
17:51:30.309,-6.38,0.92,-77.85,-5.37,2.26,0.85,-0.01,-0.12,1.01,1000
17:51:30.319,-6.47,0.88,-77.85,-5.91,1.59,0.55,-0.02,-0.11,1.01,1000
17:51:30.339,-6.52,0.96,-77.84,-6.34,0.67,-0.12,-0.02,-0.11,1.01,1000
17:51:30.344,-6.56,0.98,-77.85,-6.34,-0.55,-0.55,-0.02,-0.12,1.01,1000
17:51:30.353,-6.62,0.94,-77.86,-5.79,-1.52,-0.67,-0.02,-0.12,1.01,1000
17:51:30.363,-6.67,0.86,-77.87,-4.33,-1.77,-0.85,-0.01,-0.11,1.01,1000
17:51:30.374,-6.69,0.79,-77.88,-2.99,-1.28,-1.22,-0.02,-0.12,1.02,1000
17:51:30.385,-6.7,0.74,-77.9,-0.98,0.0,-2.38,-0.01,-0.12,1.02,1000
17:51:30.397,-6.8,0.65,-77.93,0.55,1.59,-3.11,-0.01,-0.13,1.02,1000
17:51:30.408,-6.87,0.6,-77.97,2.01,2.99,-3.9,-0.01,-0.13,1.02,1000
17:51:30.419,-6.87,0.58,-78.01,2.99,3.84,-4.27,-0.01,-0.13,1.02,1000
17:51:30.439,-6.83,0.66,-78.06,3.78,4.51,-4.7,-0.02,-0.12,1.02,1000
17:51:30.442,-6.79,0.82,-78.11,4.27,4.33,-5.18,-0.03,-0.12,1.02,1000
17:51:30.451,-6.68,1.1,-78.18,3.54,2.99,-5.37,-0.04,-0.12,1.02,1000
17:51:30.463,-6.65,1.29,-78.23,2.32,0.85,-4.88,-0.03,-0.12,1.02,1000
17:51:30.475,-6.72,1.4,-78.28,0.98,-1.34,-3.9,-0.03,-0.13,1.02,1000
17:51:30.486,-6.82,1.46,-78.32,-0.24,-3.29,-2.87,-0.03,-0.13,1.02,1000
17:51:30.495,-6.84,1.5,-78.34,-1.4,-4.33,-1.65,-0.03,-0.12,1.03,1000
17:51:30.507,-6.84,1.51,-78.36,-2.74,-4.39,-0.91,-0.03,-0.12,1.03,1000
17:51:30.519,-6.8,1.39,-78.36,-3.41,-2.99,0.0,-0.02,-0.12,1.03,1000
17:51:30.545,-6.8,1.3,-78.36,-3.84,-1.16,0.61,-0.02,-0.12,1.03,1000
17:51:30.545,-6.77,1.29,-78.35,-3.66,0.85,0.61,-0.02,-0.12,1.02,1000
17:51:30.551,-6.83,1.4,-78.35,-3.05,2.44,-0.43,-0.04,-0.12,1.02,1000
17:51:30.561,-6.73,1.74,-78.36,-1.95,2.62,-1.46,-0.05,-0.11,1.04,1000
17:51:30.573,-6.62,1.88,-78.38,-0.37,1.65,-1.83,-0.03,-0.12,1.04,1000
17:51:30.583,-6.73,1.78,-78.4,0.24,-0.18,-0.55,-0.02,-0.14,1.04,1000
17:51:30.594,-6.95,1.62,-78.4,1.46,-1.71,0.79,-0.02,-0.15,1.02,1000
17:51:30.606,-7.06,1.63,-78.39,2.2,-2.32,1.28,-0.04,-0.13,1.04,1000
17:51:30.621,-7.01,1.6,-78.37,2.32,-2.68,1.46,-0.02,-0.13,1.03,1000
17:51:30.648,-7.07,1.5,-78.35,2.68,-2.32,1.59,-0.03,-0.13,1.02,1000
17:51:30.648,-6.98,1.53,-78.34,2.68,-1.71,1.22,-0.03,-0.12,1.03,1000
17:51:30.651,-6.86,1.43,-78.32,2.56,-1.16,1.77,-0.01,-0.12,1.03,1000
17:51:30.660,-6.92,1.11,-78.3,2.13,-0.06,2.87,0.01,-0.13,1.02,1000
17:51:30.671,-6.87,0.88,-78.26,1.59,0.85,3.6,-0.0,-0.11,1.02,1000
17:51:30.682,-6.75,0.79,-78.22,0.61,1.83,3.48,-0.01,-0.11,1.02,1000
17:51:30.693,-6.67,0.75,-78.18,-0.3,2.68,2.87,-0.01,-0.11,1.01,1000
17:51:30.706,-6.52,0.88,-78.16,-1.4,3.11,1.22,-0.03,-0.1,1.02,1000
17:51:30.715,-6.39,0.95,-78.16,-2.38,2.99,0.0,-0.02,-0.1,1.01,1000
17:51:30.728,-6.4,1.02,-78.16,-2.68,2.38,-1.1,-0.03,-0.11,1.01,1000
17:51:30.749,-6.36,1.1,-78.18,-2.62,1.28,-2.2,-0.02,-0.11,1.02,1000
17:51:30.749,-6.37,1.07,-78.21,-2.26,0.12,-2.87,-0.01,-0.12,1.02,1000
17:51:30.759,-6.51,0.9,-78.24,-1.59,-0.18,-2.74,-0.01,-0.13,1.01,1000
17:51:30.771,-6.69,1.01,-78.28,-0.79,0.37,-3.72,-0.04,-0.12,1.03,1000
17:51:30.782,-6.68,1.17,-78.32,0.24,1.22,-4.63,-0.02,-0.12,1.04,1000
17:51:30.794,-6.83,1.08,-78.38,0.55,1.04,-4.39,-0.01,-0.14,1.04,1000
17:51:30.803,-6.96,0.97,-78.42,1.52,1.1,-3.29,-0.01,-0.13,1.02,1000
17:51:30.815,-7.0,0.86,-78.45,1.22,0.73,-1.83,-0.01,-0.13,1.04,1000
17:51:30.826,-7.03,0.84,-78.46,0.73,0.85,-1.16,-0.02,-0.13,1.02,1000
17:51:30.856,-7.02,0.89,-78.47,-0.85,0.98,-0.73,-0.02,-0.12,1.03,1000
17:51:30.856,-6.93,0.92,-78.48,-2.8,1.28,-0.67,-0.01,-0.12,1.02,1000
17:51:30.863,-6.92,0.89,-78.48,-4.39,1.52,-0.3,-0.01,-0.12,1.02,1000
17:51:30.870,-6.83,0.99,-78.49,-4.76,1.65,-0.98,-0.03,-0.11,1.02,1000
17:51:30.880,-6.74,1.35,-78.51,-4.21,1.4,-2.74,-0.05,-0.11,1.03,1000
17:51:30.891,-6.58,1.66,-78.55,-3.05,0.91,-4.02,-0.04,-0.11,1.04,1000
17:51:30.902,-6.64,1.54,-78.59,-1.52,0.0,-3.48,-0.01,-0.13,1.04,1000
17:51:30.913,-6.9,1.24,-78.62,0.3,-0.12,-2.01,0.0,-0.14,1.03,1000
17:51:30.925,-7.06,1.01,-78.63,1.28,0.43,-0.43,-0.01,-0.14,1.03,1000
17:51:30.938,-7.2,1.07,-78.63,2.38,1.89,-0.91,-0.03,-0.14,1.01,1000
17:51:30.949,-7.08,1.41,-78.65,2.56,2.93,-2.56,-0.05,-0.11,1.04,1000
17:51:30.960,-6.92,1.64,-78.69,2.38,3.17,-3.54,-0.04,-0.13,1.02,1000
17:51:30.968,-6.94,1.71,-78.73,2.38,2.5,-3.6,-0.03,-0.13,1.03,1000
17:51:30.979,-6.87,1.7,-78.76,2.2,0.91,-2.68,-0.02,-0.12,1.02,1000
17:51:30.991,-6.94,1.56,-78.78,1.52,-0.43,-1.34,-0.02,-0.13,1.03,1000
17:51:31.003,-6.96,1.47,-78.79,0.12,-0.67,-0.67,-0.02,-0.12,1.01,1000
17:51:31.012,-6.97,1.45,-78.8,-1.16,-0.18,-0.61,-0.03,-0.14,1.01,1000
17:51:31.023,-7.0,1.9,-78.81,-1.59,0.73,-2.07,-0.07,-0.11,1.02,1000
17:51:31.042,-6.85,2.24,-78.84,0.55,0.67,-3.6,-0.06,-0.11,1.03,1000
17:51:31.050,-6.85,2.11,-78.88,0.79,-0.24,-1.89,-0.02,-0.14,1.05,1000
17:51:31.056,-6.8,1.93,-78.88,3.05,-0.85,0.67,-0.02,-0.11,1.02,1000
17:51:31.071,-6.76,1.7,-78.86,4.02,-1.46,3.11,-0.02,-0.13,1.04,1000
17:51:31.080,-6.78,1.5,-78.82,3.72,-0.73,4.09,-0.02,-0.12,1.01,1000
17:51:31.089,-6.73,1.39,-78.78,2.2,1.52,3.6,-0.02,-0.12,1.02,1000
17:51:31.106,-6.7,1.33,-78.75,-0.73,3.48,2.56,-0.02,-0.12,1.01,1000
17:51:31.115,-6.67,1.28,-78.73,-3.23,5.06,0.91,-0.02,-0.12,1.0,1000
17:51:31.123,-6.7,1.48,-78.73,-4.82,5.18,-1.46,-0.05,-0.1,1.01,1000
17:51:31.136,-6.47,1.78,-78.77,-5.12,4.02,-4.02,-0.05,-0.1,1.02,1000
17:51:31.158,-6.57,1.94,-78.82,-4.27,1.52,-5.0,-0.04,-0.13,1.03,1000
17:51:31.158,-6.63,2.06,-78.87,-2.26,-0.98,-5.12,-0.04,-0.12,1.03,1000
17:51:31.166,-6.67,1.93,-78.92,-0.12,-3.29,-3.48,-0.02,-0.13,1.04,1000
17:51:31.180,-6.89,1.69,-78.95,1.4,-4.09,-1.89,-0.02,-0.14,1.02,1000
17:51:31.188,-6.94,1.46,-78.96,1.77,-3.23,-0.55,-0.01,-0.12,1.03,1000
17:51:31.199,-6.98,1.31,-78.96,1.22,-1.1,-0.18,-0.02,-0.13,1.01,1000
17:51:31.211,-7.06,1.51,-78.97,1.22,1.22,-1.4,-0.05,-0.12,1.0,1000
17:51:31.221,-6.7,2.03,-79.0,0.91,2.62,-3.35,-0.06,-0.1,1.04,1000
17:51:31.232,-6.64,2.14,-79.04,0.91,1.95,-3.05,-0.03,-0.13,1.02,1000
17:51:31.245,-6.71,1.94,-79.06,1.89,0.98,-0.79,-0.02,-0.13,1.03,1000
17:51:31.262,-6.77,1.76,-79.05,1.83,-0.49,1.1,-0.02,-0.13,1.02,1000
17:51:31.266,-6.9,1.54,-79.03,1.65,-0.73,2.8,-0.01,-0.14,1.02,1000
17:51:31.278,-6.95,1.41,-79.0,-0.06,0.06,2.68,-0.02,-0.12,1.01,1000
17:51:31.288,-6.92,1.51,-78.98,-1.34,1.59,1.16,-0.04,-0.12,1.0,1000
17:51:31.301,-6.75,1.86,-78.98,-3.05,2.13,-1.46,-0.06,-0.1,1.02,1000
17:51:31.310,-6.5,1.99,-79.01,-3.54,1.83,-2.99,-0.04,-0.1,1.02,1000
17:51:31.320,-6.59,1.89,-79.04,-2.87,0.37,-3.17,-0.02,-0.13,1.02,1000
17:51:31.333,-6.68,1.7,-79.07,-2.13,-1.1,-2.07,-0.02,-0.13,1.02,1000
17:51:31.345,-6.8,1.54,-79.09,-1.83,-1.4,-1.46,-0.02,-0.13,1.03,1000
17:51:31.368,-6.92,1.48,-79.11,-1.95,-0.61,-1.59,-0.03,-0.13,1.01,1000
17:51:31.368,-6.91,1.56,-79.13,-1.89,0.61,-2.26,-0.04,-0.12,1.02,1000
17:51:31.375,-6.85,1.76,-79.15,-2.26,1.59,-2.87,-0.04,-0.11,1.02,1000
17:51:31.387,-6.75,1.85,-79.19,-2.01,2.01,-3.11,-0.04,-0.12,1.02,1000
17:51:31.397,-6.8,1.87,-79.22,-2.13,1.28,-2.56,-0.03,-0.13,1.03,1000
17:51:31.408,-6.84,1.86,-79.24,-1.89,0.55,-1.59,-0.04,-0.13,1.02,1000
17:51:31.422,-6.91,1.87,-79.25,-2.01,-0.06,-0.91,-0.03,-0.13,1.02,1000
17:51:31.460,-6.97,1.91,-79.26,-2.38,-0.06,-0.49,-0.03,-0.13,1.02,1000
17:51:31.460,-7.06,2.01,-79.27,-2.01,0.18,-0.67,-0.05,-0.13,1.02,1000
17:51:31.460,-6.98,2.34,-79.28,-1.52,-0.37,-1.52,-0.06,-0.11,1.04,1000
17:51:31.474,-6.87,2.46,-79.3,-1.34,-1.71,-1.4,-0.04,-0.13,1.04,1000
17:51:31.495,-7.03,2.29,-79.31,-0.49,-2.56,-0.37,-0.03,-0.14,1.03,1000
17:51:31.510,-7.16,2.04,-79.3,0.06,-2.8,1.34,-0.02,-0.13,1.03,1000
17:51:31.515,-7.21,1.92,-79.29,0.24,-2.13,1.77,-0.03,-0.13,1.03,1000
17:51:31.515,-7.17,1.88,-79.27,-0.12,-0.98,1.52,-0.03,-0.12,1.02,1000
17:51:31.518,-7.12,1.83,-79.25,-0.98,0.12,0.98,-0.03,-0.12,1.02,1000
17:51:31.532,-7.06,1.74,-79.25,-1.59,1.46,0.55,-0.02,-0.12,1.02,1000
17:51:31.540,-7.02,1.63,-79.24,-2.56,2.26,0.0,-0.02,-0.12,1.02,1000
17:51:31.553,-7.06,1.63,-79.25,-2.62,2.56,-0.91,-0.03,-0.13,1.01,1000
17:51:31.568,-7.03,1.87,-79.26,-2.01,2.26,-2.2,-0.06,-0.12,1.02,1000
17:51:31.573,-6.84,2.37,-79.3,-0.55,0.79,-4.27,-0.07,-0.11,1.03,1000
17:51:31.584,-6.68,2.59,-79.35,0.79,-1.59,-4.39,-0.05,-0.12,1.04,1000
17:51:31.595,-6.79,2.36,-79.39,2.56,-3.66,-2.38,-0.02,-0.14,1.03,1000
17:51:31.606,-7.04,1.92,-79.4,3.84,-4.63,0.55,-0.01,-0.15,1.03,1000
17:51:31.617,-7.18,1.56,-79.38,3.05,-3.72,2.2,-0.01,-0.14,1.02,1000
17:51:31.628,-7.21,1.38,-79.35,1.1,-1.28,2.38,-0.02,-0.12,1.01,1000
17:51:31.640,-7.17,1.31,-79.33,-1.52,1.77,1.28,-0.02,-0.12,1.01,1000
17:51:31.651,-7.0,1.36,-79.33,-4.27,4.21,-0.55,-0.02,-0.1,1.01,1000
17:51:31.666,-6.86,1.47,-79.34,-5.61,5.55,-2.2,-0.04,-0.11,1.0,1000
17:51:31.675,-6.78,1.73,-79.38,-6.22,5.12,-3.96,-0.04,-0.11,1.03,1000
17:51:31.683,-6.78,1.83,-79.43,-5.79,3.17,-4.15,-0.03,-0.13,1.02,1000
17:51:31.695,-6.96,1.83,-79.47,-4.51,0.67,-3.78,-0.04,-0.14,1.03,1000
17:51:31.705,-7.12,1.79,-79.51,-2.99,-1.89,-2.74,-0.03,-0.14,1.02,1000
17:51:31.721,-7.29,1.66,-79.53,-2.01,-3.11,-1.65,-0.03,-0.15,1.03,1000
17:51:31.727,-7.43,1.76,-79.55,-0.61,-3.48,-1.59,-0.05,-0.13,1.02,1000
17:51:31.738,-7.25,1.99,-79.57,0.73,-2.87,-2.01,-0.05,-0.12,1.04,1000
17:51:31.749,-7.23,2.05,-79.59,0.91,-2.44,-1.65,-0.04,-0.13,1.03,1000
17:51:31.771,-7.22,1.9,-79.6,2.13,-1.22,-0.24,-0.02,-0.13,1.03,1000
17:51:31.772,-7.27,1.71,-79.59,2.38,-0.12,1.16,-0.02,-0.14,1.03,1000
17:51:31.782,-7.25,1.63,-79.57,2.32,1.04,2.07,-0.03,-0.13,1.02,1000
17:51:31.794,-7.13,1.63,-79.55,1.71,2.01,2.26,-0.03,-0.12,1.02,1000
17:51:31.804,-7.08,1.75,-79.53,1.1,2.62,1.22,-0.05,-0.13,1.02,1000
17:51:31.818,-6.96,2.06,-79.53,0.73,2.44,-0.79,-0.06,-0.11,1.03,1000
17:51:31.828,-6.87,2.22,-79.54,0.98,1.52,-1.95,-0.04,-0.12,1.03,1000
17:51:31.838,-6.98,2.17,-79.56,1.59,-0.12,-1.89,-0.03,-0.14,1.03,1000
17:51:31.854,-7.02,2.07,-79.58,1.89,-1.83,-1.34,-0.03,-0.13,1.02,1000
17:51:31.860,-7.11,1.96,-79.59,1.95,-3.05,-0.79,-0.03,-0.14,1.02,1000
17:51:31.874,-7.14,1.81,-79.6,1.16,-3.29,-0.55,-0.02,-0.13,1.01,1000
17:51:31.881,-7.09,1.63,-79.6,0.24,-1.89,-0.55,-0.02,-0.12,1.01,1000
17:51:31.892,-6.96,1.59,-79.61,-1.22,0.3,-1.16,-0.03,-0.11,1.01,1000
17:51:31.903,-6.78,1.57,-79.63,-3.05,2.56,-2.07,-0.02,-0.11,1.01,1000
17:51:31.914,-6.83,1.57,-79.66,-4.09,4.02,-2.62,-0.03,-0.12,1.0,1000
17:51:31.925,-6.81,1.67,-79.69,-5.06,4.51,-3.11,-0.03,-0.12,1.02,1000
17:51:31.936,-6.86,1.74,-79.73,-5.73,3.9,-3.05,-0.03,-0.12,1.02,1000
17:51:31.947,-6.95,1.8,-79.76,-5.37,2.74,-2.56,-0.04,-0.12,1.01,1000
17:51:31.962,-6.96,1.9,-79.79,-5.18,0.67,-2.26,-0.05,-0.13,1.01,1000
17:51:31.977,-7.09,2.08,-79.81,-4.27,-0.67,-2.44,-0.05,-0.13,1.02,1000
17:51:31.980,-7.15,2.17,-79.84,-2.93,-1.46,-2.62,-0.04,-0.13,1.03,1000
17:51:31.991,-7.2,2.15,-79.87,-2.2,-2.5,-1.83,-0.04,-0.14,1.03,1000
17:51:32.002,-7.32,2.01,-79.88,-0.79,-2.93,-0.73,-0.03,-0.13,1.02,1000
17:51:32.013,-7.31,1.9,-79.88,0.3,-2.8,0.0,-0.03,-0.13,1.02,1000
17:51:32.024,-7.38,1.92,-79.88,1.52,-2.5,0.24,-0.05,-0.13,1.01,1000
17:51:32.037,-7.25,2.07,-79.88,1.71,-2.26,-0.3,-0.05,-0.12,1.03,1000
17:51:32.046,-7.09,2.05,-79.89,1.34,-2.8,0.12,-0.03,-0.12,1.02,1000
17:51:32.061,-7.02,1.87,-79.88,0.98,-3.48,1.22,-0.02,-0.12,1.02,1000
17:51:32.075,-6.89,1.69,-79.86,-0.3,-3.96,1.77,-0.02,-0.11,1.01,1000
17:51:32.081,-6.8,1.6,-79.84,-2.32,-3.66,2.01,-0.03,-0.12,1.02,1000
17:51:32.090,-6.77,1.62,-79.82,-4.57,-2.68,1.1,-0.04,-0.11,1.01,1000
17:51:32.101,-6.59,1.88,-79.82,-6.1,-1.95,-0.24,-0.05,-0.1,1.01,1000
17:51:32.115,-6.49,2.06,-79.83,-6.83,-1.16,-1.52,-0.04,-0.11,1.01,1000
17:51:32.125,-6.48,2.16,-79.85,-5.49,-1.46,-1.59,-0.05,-0.11,1.0,1000
17:51:32.134,-6.5,2.3,-79.87,-4.39,-1.22,-1.89,-0.04,-0.11,1.0,1000
17:51:32.148,-6.59,2.51,-79.88,-2.26,-1.04,-1.77,-0.06,-0.12,0.99,1000
17:51:32.158,-6.69,2.83,-79.91,-0.61,-0.61,-2.26,-0.07,-0.12,1.0,1000
17:51:32.175,-6.8,3.0,-79.93,0.85,-0.98,-2.07,-0.06,-0.14,1.0,1000
17:51:32.178,-7.13,2.98,-79.96,1.52,-1.46,-1.95,-0.05,-0.16,1.01,1000
17:51:32.190,-7.4,3.02,-79.97,1.65,-2.01,-1.52,-0.06,-0.15,0.99,1000
17:51:32.201,-7.62,3.24,-80.0,0.85,-2.56,-2.32,-0.07,-0.15,1.0,1000
17:51:32.211,-7.8,3.51,-80.03,-0.24,-3.54,-3.23,-0.08,-0.15,0.99,1000
17:51:32.222,-7.88,3.8,-80.07,-1.65,-4.63,-3.96,-0.08,-0.14,1.01,1000
17:51:32.233,-7.9,3.88,-80.11,-2.68,-5.55,-3.66,-0.07,-0.14,1.0,1000
17:51:32.245,-8.02,3.73,-80.15,-3.48,-6.04,-2.07,-0.05,-0.15,1.01,1000
17:51:32.255,-8.13,3.52,-80.16,-4.82,-5.85,-0.18,-0.05,-0.15,1.01,1000
17:51:32.269,-8.23,3.38,-80.15,-5.98,-5.3,1.22,-0.06,-0.14,1.01,1000
17:51:32.284,-8.22,3.34,-80.13,-7.26,-4.82,2.56,-0.06,-0.14,1.01,1000
17:51:32.289,-8.1,3.38,-80.1,-7.99,-5.06,2.99,-0.06,-0.12,1.02,1000
17:51:32.299,-7.96,3.33,-80.06,-8.29,-5.37,4.21,-0.05,-0.13,1.02,1000
17:51:32.310,-7.92,3.08,-80.0,-8.11,-5.67,6.16,-0.04,-0.14,1.03,1000
17:51:32.321,-7.99,2.74,-79.92,-7.62,-5.12,8.17,-0.03,-0.14,1.03,1000
17:51:32.334,-8.09,2.38,-79.82,-6.71,-4.15,10.0,-0.02,-0.15,1.03,1000
17:51:32.344,-8.16,2.22,-79.7,-5.61,-2.99,10.91,-0.03,-0.14,1.03,1000
17:51:32.354,-8.1,2.14,-79.58,-4.33,-1.71,10.85,-0.03,-0.14,1.03,1000
17:51:32.365,-8.12,1.99,-79.47,-3.84,-1.1,10.85,-0.02,-0.15,1.03,1000
17:51:32.380,-8.21,1.67,-79.34,-2.62,-0.85,11.28,-0.01,-0.15,1.02,1000
17:51:32.388,-8.28,1.36,-79.21,-2.32,-0.98,11.59,-0.01,-0.16,1.03,1000
17:51:32.398,-8.45,1.26,-79.09,-1.77,-1.65,10.91,-0.02,-0.16,1.02,1000
17:51:32.411,-8.35,1.29,-78.98,-1.89,-3.23,9.39,-0.02,-0.14,1.04,1000
17:51:32.421,-8.31,1.05,-78.88,-2.62,-5.43,8.84,0.0,-0.15,1.03,1000
17:51:32.432,-8.42,0.59,-78.78,-2.68,-7.01,9.21,0.02,-0.15,1.03,1000
17:51:32.442,-8.4,0.12,-78.68,-3.05,-8.35,9.33,0.02,-0.15,1.03,1000
17:51:32.458,-8.4,-0.33,-78.57,-2.62,-8.66,9.27,0.03,-0.15,1.02,1000
17:51:32.492,-8.41,-0.66,-78.48,-2.56,-8.41,8.48,0.03,-0.14,1.02,1000
17:51:32.492,-8.27,-0.95,-78.39,-2.56,-7.32,6.89,0.03,-0.14,1.02,1000
17:51:32.495,-8.23,-1.22,-78.33,-2.2,-6.46,5.18,0.03,-0.15,1.02,1000
17:51:32.499,-8.15,-1.37,-78.29,-1.95,-5.37,3.78,0.03,-0.14,1.02,1000
17:51:32.513,-8.16,-1.63,-78.25,-2.07,-4.45,2.56,0.04,-0.15,1.01,1000
17:51:32.521,-8.25,-1.88,-78.23,-2.26,-3.54,1.71,0.05,-0.15,1.01,1000
17:51:32.531,-8.31,-2.15,-78.21,-3.17,-2.74,1.22,0.05,-0.15,1.02,1000
17:51:32.541,-8.45,-2.26,-78.21,-4.21,-1.4,0.12,0.04,-0.16,1.01,1000
17:51:32.552,-8.59,-2.32,-78.21,-6.16,-0.3,-1.52,0.04,-0.16,1.02,1000
17:51:32.563,-8.7,-2.21,-78.24,-8.11,0.91,-3.72,0.02,-0.16,1.01,1000
17:51:32.577,-8.83,-1.98,-78.3,-9.94,1.28,-6.52,0.01,-0.16,1.01,1000
17:51:32.589,-8.91,-1.68,-78.39,-11.28,1.22,-8.6,0.01,-0.16,1.02,1000
17:51:32.597,-9.23,-1.34,-78.49,-11.59,0.12,-10.49,-0.0,-0.19,1.03,1000
17:51:32.607,-9.51,-1.13,-78.61,-10.49,-1.65,-11.34,0.01,-0.19,1.05,1000
17:51:32.618,-9.96,-1.16,-78.73,-8.84,-3.41,-10.06,0.03,-0.21,1.05,1000
17:51:32.630,-10.34,-1.22,-78.83,-5.73,-4.7,-8.35,0.01,-0.2,1.05,1000
17:51:32.641,-10.35,-1.2,-78.91,-2.56,-5.67,-6.28,0.02,-0.19,1.06,1000
17:51:32.651,-10.43,-1.33,-78.97,0.06,-5.67,-4.09,0.03,-0.2,1.05,1000
17:51:32.664,-10.57,-1.57,-79.0,2.13,-4.7,-1.65,0.04,-0.2,1.05,1000
17:51:32.674,-10.56,-1.68,-79.01,2.8,-3.17,0.0,0.04,-0.2,1.05,1000
17:51:32.690,-10.62,-1.81,-79.0,2.74,-1.83,1.1,0.04,-0.2,1.03,1000
17:51:32.696,-10.56,-1.9,-78.99,2.32,-0.73,2.01,0.04,-0.19,1.04,1000
17:51:32.707,-10.41,-1.92,-78.96,1.22,-0.79,2.26,0.03,-0.18,1.04,1000
17:51:32.718,-10.25,-1.99,-78.94,0.24,-0.91,2.26,0.04,-0.17,1.03,1000
17:51:32.728,-10.12,-2.1,-78.91,-1.1,-1.46,2.01,0.04,-0.18,1.03,1000
17:51:32.739,-10.08,-2.19,-78.9,-1.46,-1.46,0.91,0.04,-0.17,1.02,1000
17:51:32.757,-9.84,-2.07,-78.9,-1.46,-1.34,-1.1,0.02,-0.16,1.03,1000
17:51:32.762,-9.61,-1.98,-78.93,-0.79,-1.65,-3.54,0.02,-0.16,1.02,1000
17:51:32.772,-9.46,-1.91,-78.98,-0.06,-1.46,-5.49,0.02,-0.16,1.02,1000
17:51:32.793,-9.24,-1.71,-79.05,1.1,-1.28,-7.8,0.01,-0.15,1.01,1000
17:51:32.798,-9.0,-1.23,-79.15,2.5,-1.4,-10.91,-0.02,-0.14,1.01,1000
17:51:32.840,-8.66,-0.64,-79.29,4.02,-2.01,-13.6,-0.02,-0.14,1.0,1000
17:51:32.840,-8.53,-0.36,-79.45,4.45,-3.11,-14.82,-0.0,-0.16,1.0,1000
17:51:32.840,-8.57,-0.31,-79.61,4.63,-3.41,-14.57,0.0,-0.16,1.0,1000
17:51:32.840,-8.55,-0.19,-79.77,3.96,-3.54,-14.02,-0.01,-0.15,1.01,1000
17:51:32.856,-8.47,-0.0,-79.92,2.68,-3.05,-13.54,-0.02,-0.15,0.99,1000
17:51:32.861,-8.37,0.23,-80.07,1.71,-2.8,-13.05,-0.02,-0.14,0.99,1000
17:51:32.871,-8.26,0.56,-80.21,1.1,-2.56,-12.62,-0.03,-0.14,1.0,1000
17:51:32.884,-8.19,0.79,-80.34,0.24,-2.74,-11.46,-0.02,-0.14,1.0,1000
17:51:32.896,-8.29,0.79,-80.46,-0.67,-3.05,-9.45,-0.01,-0.16,1.0,1000
17:51:32.904,-8.42,0.74,-80.55,-1.28,-2.93,-6.89,-0.01,-0.15,1.0,1000
17:51:32.915,-8.53,0.81,-80.61,-2.26,-2.8,-5.0,-0.02,-0.16,1.0,1000
17:51:32.926,-8.65,0.8,-80.65,-3.29,-3.05,-3.48,-0.01,-0.16,1.0,1000
17:51:32.937,-8.79,0.75,-80.68,-4.39,-2.44,-2.07,-0.01,-0.16,1.01,1000
17:51:32.949,-8.93,0.83,-80.7,-4.82,-1.95,-1.65,-0.02,-0.16,1.01,1000
17:51:32.959,-8.99,0.83,-80.71,-4.63,-1.59,-0.79,-0.01,-0.16,1.02,1000
17:51:32.970,-9.06,0.61,-80.71,-4.21,-1.95,0.98,0.01,-0.17,1.03,1000
17:51:32.982,-9.25,0.32,-80.69,-2.5,-2.01,2.93,0.01,-0.17,1.02,1000
17:51:33.001,-9.34,0.08,-80.65,-1.52,-2.01,4.09,0.02,-0.17,1.03,1000
17:51:33.004,-9.45,-0.22,-80.6,-1.04,-1.59,4.94,0.03,-0.18,1.02,1000
17:51:33.016,-9.49,-0.42,-80.55,-0.3,-0.67,4.63,0.01,-0.16,1.02,1000
17:51:33.026,-9.44,-0.43,-80.5,0.18,0.37,3.41,0.01,-0.17,1.01,1000
17:51:33.036,-9.46,-0.16,-80.48,1.83,0.55,0.61,-0.04,-0.17,1.01,1000
17:51:33.054,-9.53,0.77,-80.5,8.84,-0.49,-3.41,-0.07,-0.2,1.01,1000
17:51:33.064,-9.31,1.25,-80.55,14.63,-4.09,-4.51,-0.04,-0.16,1.11,1000
17:51:33.069,-8.67,1.09,-80.58,21.77,-5.98,-1.28,-0.01,-0.14,1.06,1000
17:51:33.081,-8.44,0.4,-80.56,27.26,-8.84,5.18,0.05,-0.18,1.08,1000
17:51:33.111,-8.17,-0.46,-80.47,29.39,-8.96,10.67,0.07,-0.14,1.02,1000
17:51:33.112,-7.93,-1.13,-80.33,27.44,-6.83,13.66,0.05,-0.15,1.04,1000
17:51:33.116,-7.63,-1.48,-80.18,21.89,-2.5,13.17,0.04,-0.11,0.99,1000
17:51:33.124,-7.14,-1.64,-80.06,14.51,0.37,11.22,0.03,-0.1,0.99,1000
17:51:33.137,-6.97,-1.45,-79.95,7.2,2.5,6.34,-0.01,-0.1,0.94,1000
17:51:33.149,-6.27,-0.86,-79.92,0.98,1.95,0.67,-0.01,-0.06,1.0,1000
17:51:33.157,-5.98,-0.88,-79.93,-4.33,1.1,-2.32,0.04,-0.11,0.99,1000
17:51:33.171,-6.29,-1.41,-79.96,-6.77,-0.49,-2.68,0.06,-0.12,0.99,1000
17:51:33.179,-6.58,-1.96,-79.99,-8.72,-2.01,-1.77,0.07,-0.14,1.0,1000
17:51:33.207,-6.94,-2.25,-80.01,-10.49,-2.68,-2.01,0.05,-0.14,0.99,1000
17:51:33.207,-7.32,-2.26,-80.04,-10.0,-0.37,-3.66,0.02,-0.14,0.99,1000
17:51:33.212,-7.29,-1.75,-80.1,-10.3,1.34,-7.38,-0.01,-0.11,1.02,1000
17:51:33.223,-7.21,-1.43,-80.19,-8.66,2.93,-9.27,0.01,-0.12,1.01,1000
17:51:33.235,-7.35,-1.33,-80.29,-5.43,3.23,-8.84,0.02,-0.14,1.03,1000
17:51:33.245,-7.52,-1.4,-80.38,-3.05,1.95,-7.07,0.03,-0.15,1.03,1000
17:51:33.258,-7.82,-1.47,-80.45,-0.67,2.07,-5.37,0.03,-0.16,1.02,1000
17:51:33.268,-8.02,-1.41,-80.5,-0.79,2.07,-4.02,0.02,-0.15,1.03,1000
17:51:33.278,-8.03,-1.36,-80.54,-0.55,3.29,-2.87,0.03,-0.16,1.02,1000
17:51:33.289,-8.11,-1.04,-80.57,-1.4,3.11,-3.29,-0.01,-0.14,1.02,1000
17:51:33.304,-7.91,-0.73,-80.61,-2.44,3.29,-3.96,0.0,-0.13,1.03,1000
17:51:33.317,-8.11,-0.39,-80.66,-1.83,2.62,-4.7,-0.03,-0.16,1.02,1000
17:51:33.325,-8.06,0.19,-80.72,0.18,0.91,-5.61,-0.04,-0.14,1.05,1000
17:51:33.336,-7.98,0.27,-80.77,1.04,-1.16,-4.39,0.01,-0.15,1.07,1000
17:51:33.344,-8.24,-0.08,-80.8,2.74,-3.05,-0.79,0.03,-0.18,1.05,1000
17:51:33.355,-8.45,-0.52,-80.79,2.74,-4.02,2.2,0.04,-0.16,1.05,1000
17:51:33.369,-8.44,-0.75,-80.75,0.85,-3.29,3.54,0.02,-0.14,1.02,1000
17:51:33.377,-8.35,-0.87,-80.72,-2.44,-1.65,2.93,0.02,-0.14,1.0,1000
17:51:33.388,-8.27,-0.92,-80.69,-7.26,0.3,1.52,0.02,-0.13,1.01,1000
17:51:33.409,-8.05,-1.04,-80.69,-11.59,2.01,-0.37,0.03,-0.11,0.99,1000
17:51:33.413,-8.21,-1.03,-80.71,-15.12,2.99,-2.44,0.01,-0.16,0.99,1000
17:51:33.421,-8.39,-0.66,-80.75,-15.43,3.66,-5.06,-0.03,-0.13,1.01,1000
17:51:33.434,-8.26,-0.16,-80.82,-13.78,2.62,-6.59,-0.01,-0.14,1.03,1000
17:51:33.447,-8.46,-0.14,-80.89,-10.91,0.37,-5.91,0.01,-0.17,1.04,1000
17:51:33.457,-8.69,-0.27,-80.94,-6.46,-1.95,-3.17,0.02,-0.17,1.03,1000
17:51:33.468,-8.88,-0.51,-80.95,-2.87,-2.93,-0.43,0.02,-0.17,1.04,1000
17:51:33.477,-9.11,-0.77,-80.94,-0.67,-2.32,1.89,0.03,-0.17,1.02,1000
17:51:33.487,-9.29,-0.81,-80.92,0.06,-0.67,2.26,0.01,-0.18,1.0,1000
17:51:33.513,-9.3,-0.43,-80.9,-0.43,1.16,0.55,-0.02,-0.15,1.02,1000
17:51:33.513,-8.92,-0.11,-80.91,-0.49,2.62,-1.16,-0.01,-0.14,1.01,1000
17:51:33.520,-8.89,-0.16,-80.92,0.24,3.35,-1.22,0.02,-0.17,1.04,1000
17:51:33.531,-8.99,-0.37,-80.92,0.12,1.52,0.12,0.03,-0.17,1.03,1000
17:51:33.542,-9.16,-0.66,-80.91,0.98,0.67,2.26,0.03,-0.19,1.05,1000
17:51:33.554,-9.42,-0.86,-80.88,0.3,-0.06,3.23,0.03,-0.18,1.03,1000
17:51:33.564,-9.35,-0.88,-80.84,-0.67,-1.4,2.99,0.01,-0.16,1.03,1000
17:51:33.575,-9.27,-0.76,-80.82,-2.2,-1.71,1.65,0.01,-0.15,1.01,1000
17:51:33.588,-9.05,-0.75,-80.81,-4.02,-1.71,0.24,0.01,-0.14,1.01,1000
17:51:33.600,-9.01,-0.81,-80.81,-5.85,-1.83,-0.49,0.02,-0.16,1.01,1000
17:51:33.614,-8.98,-0.87,-80.82,-7.13,-1.95,-0.91,0.02,-0.15,1.01,1000
17:51:33.621,-8.9,-0.96,-80.83,-8.41,-1.71,-0.73,0.02,-0.14,1.02,1000
17:51:33.630,-9.03,-1.07,-80.84,-7.93,-1.34,-0.67,0.03,-0.16,1.02,1000
17:51:33.641,-9.21,-1.18,-80.84,-7.13,-0.43,-0.24,0.03,-0.17,1.02,1000
17:51:33.652,-9.3,-1.22,-80.84,-5.61,0.67,-0.24,0.02,-0.17,1.03,1000
17:51:33.665,-9.27,-1.09,-80.85,-3.05,2.07,-0.67,0.01,-0.16,1.04,1000
17:51:33.674,-9.27,-0.98,-80.85,-0.18,2.93,-0.85,0.01,-0.18,1.04,1000
17:51:33.685,-9.34,-0.79,-80.87,3.35,2.93,-1.28,0.0,-0.17,1.04,1000
17:51:33.699,-9.46,-0.52,-80.88,8.54,2.38,-1.65,-0.02,-0.19,1.03,1000
17:51:33.711,-9.55,0.03,-80.91,12.99,0.91,-2.68,-0.02,-0.17,1.07,1000
17:51:33.718,-9.2,0.13,-80.93,16.1,-2.13,-1.16,0.0,-0.16,1.06,1000
17:51:33.729,-9.14,-0.19,-80.93,17.87,-4.21,1.52,0.03,-0.19,1.05,1000
17:51:33.743,-9.23,-0.8,-80.89,17.32,-5.0,4.82,0.05,-0.18,1.02,1000
17:51:33.752,-9.03,-1.1,-80.82,14.02,-4.39,6.04,0.03,-0.15,1.0,1000
17:51:33.764,-8.83,-1.27,-80.76,8.72,-2.62,5.0,0.03,-0.15,0.99,1000
17:51:33.774,-8.58,-1.44,-80.72,2.13,-0.85,3.17,0.03,-0.13,0.98,1000
17:51:33.785,-8.46,-1.49,-80.7,-2.8,0.43,0.55,0.02,-0.15,0.97,1000
17:51:33.795,-8.4,-1.37,-80.72,-6.52,0.91,-2.93,0.01,-0.13,1.0,1000
17:51:33.826,-8.2,-1.13,-80.77,-6.71,1.04,-6.16,-0.0,-0.13,1.0,1000
17:51:33.826,-8.09,-0.98,-80.85,-5.18,-0.12,-7.38,0.02,-0.14,1.03,1000
17:51:33.832,-8.17,-0.9,-80.93,-0.3,-1.46,-7.68,0.0,-0.15,1.02,1000
17:51:33.839,-8.14,-0.81,-81.01,4.88,-2.8,-7.13,0.02,-0.14,1.05,1000
17:51:33.851,-8.05,-1.11,-81.07,8.41,-3.41,-4.45,0.04,-0.16,1.03,1000
17:51:33.861,-8.2,-1.5,-81.1,10.73,-2.56,-1.22,0.05,-0.16,1.02,1000
17:51:33.872,-8.12,-1.68,-81.1,10.43,-0.85,0.06,0.03,-0.14,1.01,1000
17:51:33.883,-7.94,-1.71,-81.1,8.41,1.34,0.0,0.03,-0.14,0.99,1000
17:51:33.894,-7.88,-1.44,-81.11,5.49,2.93,-1.59,0.0,-0.12,0.99,1000
17:51:33.908,-7.6,-1.08,-81.14,3.29,3.72,-3.35,-0.0,-0.12,0.99,1000
17:51:33.920,-7.56,-0.84,-81.18,1.95,3.23,-4.21,0.01,-0.15,1.02,1000
17:51:33.930,-7.44,-0.96,-81.22,1.16,2.26,-3.17,0.03,-0.13,1.0,1000
17:51:33.938,-7.58,-1.15,-81.25,0.3,1.22,-1.83,0.03,-0.15,1.02,1000
17:51:33.949,-7.78,-1.27,-81.26,-0.37,0.98,-0.85,0.03,-0.15,1.01,1000
17:51:33.960,-7.95,-1.26,-81.27,-0.67,1.77,-1.59,0.01,-0.17,1.0,1000
17:51:33.972,-8.0,-0.61,-81.31,-1.04,2.26,-4.57,-0.04,-0.12,1.02,1000
17:51:33.986,-7.61,-0.27,-81.37,0.24,1.65,-6.16,-0.0,-0.12,1.03,1000
17:51:33.995,-7.73,-0.32,-81.43,1.16,0.55,-5.55,0.02,-0.17,1.05,1000
17:51:34.006,-7.91,-0.55,-81.49,2.74,-0.43,-3.84,0.03,-0.15,1.02,1000
17:51:34.016,-7.98,-0.52,-81.52,3.9,-0.73,-3.35,-0.0,-0.15,1.04,1000
17:51:34.027,-7.98,-0.4,-81.56,3.9,0.0,-3.72,0.01,-0.14,1.02,1000
17:51:34.037,-7.98,-0.5,-81.6,3.11,0.85,-3.05,0.03,-0.15,1.04,1000
17:51:34.048,-8.16,-0.65,-81.63,2.07,2.32,-2.56,0.01,-0.15,1.01,1000
17:51:34.059,-8.01,-0.51,-81.66,1.46,3.41,-3.35,0.0,-0.13,1.03,1000
17:51:34.070,-7.88,-0.37,-81.7,0.3,3.23,-3.78,0.01,-0.14,1.02,1000
17:51:34.081,-7.92,-0.37,-81.74,0.67,2.74,-3.6,0.01,-0.14,1.02,1000
17:51:34.092,-7.88,-0.15,-81.78,1.34,1.46,-3.66,-0.02,-0.14,1.03,1000
17:51:34.103,-7.83,0.15,-81.82,2.87,0.18,-3.96,-0.02,-0.15,1.03,1000
17:51:34.129,-7.81,0.36,-81.86,4.7,-1.34,-3.66,-0.02,-0.15,1.06,1000
17:51:34.129,-7.73,0.3,-81.89,8.29,-2.62,-1.77,0.0,-0.13,1.06,1000
17:51:34.138,-7.72,0.04,-81.9,11.04,-2.56,1.16,0.03,-0.14,1.06,1000
17:51:34.152,-7.74,-0.42,-81.87,11.89,-2.32,4.09,0.05,-0.16,1.05,1000
17:51:34.158,-7.88,-0.85,-81.81,12.32,-0.98,5.85,0.03,-0.16,1.02,1000
17:51:34.169,-7.62,-0.74,-81.75,10.73,1.28,4.7,0.0,-0.12,1.05,1000
17:51:34.180,-7.26,-0.75,-81.71,7.93,2.8,3.23,0.02,-0.13,1.03,1000
17:51:34.193,-7.12,-0.8,-81.68,6.1,3.41,2.01,0.02,-0.12,1.04,1000
17:51:34.202,-6.81,-0.81,-81.67,5.18,2.99,0.98,0.02,-0.1,1.02,1000
17:51:34.215,-6.68,-0.62,-81.66,5.06,1.83,-0.43,-0.01,-0.12,1.03,1000
17:51:34.229,-6.56,-0.36,-81.68,5.98,0.18,-2.2,-0.0,-0.11,1.04,1000
17:51:34.235,-6.3,-0.46,-81.7,7.07,-1.22,-1.65,0.02,-0.12,1.05,1000
17:51:34.246,-6.35,-0.49,-81.72,8.84,-1.83,-1.28,0.0,-0.11,1.03,1000
17:51:34.257,-6.13,-0.59,-81.73,10.43,-2.01,-0.79,0.02,-0.1,1.05,1000
17:51:34.269,-6.1,-0.76,-81.73,11.77,-1.65,-0.12,0.03,-0.12,1.03,1000
17:51:34.280,-6.17,-0.73,-81.74,13.41,-0.73,-0.37,0.01,-0.12,1.02,1000
17:51:34.291,-5.76,-0.65,-81.75,12.01,0.06,-1.1,0.01,-0.08,1.04,1000
17:51:34.303,-5.58,-0.75,-81.76,11.46,0.79,-1.1,0.02,-0.11,1.02,1000
17:51:34.317,-5.64,-0.89,-81.77,10.98,1.52,-0.67,0.02,-0.11,1.02,1000
17:51:34.335,-5.43,-0.78,-81.78,9.45,1.65,-1.28,0.01,-0.1,1.0,1000
17:51:34.335,-5.5,-0.42,-81.8,8.6,0.55,-2.13,-0.02,-0.12,1.02,1000
17:51:34.345,-5.11,-0.36,-81.82,8.48,-0.55,-1.95,0.01,-0.06,1.03,1000
17:51:34.357,-4.92,-0.5,-81.84,7.99,-1.65,-0.49,0.02,-0.1,1.03,1000
17:51:34.369,-5.02,-0.74,-81.83,8.29,-1.71,0.79,0.02,-0.1,1.01,1000
17:51:34.378,-4.79,-0.73,-81.82,7.38,-0.67,0.79,0.01,-0.07,1.02,1000
17:51:34.389,-4.75,-0.55,-81.82,7.74,0.79,-0.55,-0.01,-0.1,1.0,1000
17:51:34.401,-4.68,-0.28,-81.84,7.87,2.07,-2.13,-0.0,-0.07,1.04,1000
17:51:34.411,-4.38,-0.29,-81.86,7.38,1.77,-1.77,0.01,-0.08,1.03,1000
17:51:34.435,-4.49,-0.53,-81.87,7.93,1.46,-0.55,0.03,-0.1,1.03,1000
17:51:34.435,-4.68,-0.72,-81.87,8.29,1.28,0.24,0.01,-0.1,1.01,1000
17:51:34.446,-4.61,-0.61,-81.87,6.71,1.04,-0.37,0.01,-0.08,1.03,1000
17:51:34.456,-4.61,-0.65,-81.88,4.33,0.67,-0.98,0.02,-0.09,1.02,1000
17:51:34.469,-4.71,-0.81,-81.89,2.5,0.73,-0.85,0.02,-0.1,1.02,1000
17:51:34.479,-4.67,-0.74,-81.91,0.79,0.49,-2.01,0.0,-0.07,1.03,1000
17:51:34.488,-4.71,-0.57,-81.94,0.98,0.0,-3.29,-0.01,-0.09,1.02,1000
17:51:34.503,-4.67,-0.27,-81.98,1.71,-0.67,-4.57,-0.01,-0.08,1.04,1000
17:51:34.513,-4.61,-0.22,-82.03,3.41,-2.13,-3.78,0.0,-0.09,1.01,1000
17:51:34.538,-4.73,-0.03,-82.07,7.87,-3.72,-3.48,-0.03,-0.1,1.02,1000
17:51:34.539,-4.46,0.25,-82.1,12.07,-5.12,-2.56,-0.01,-0.05,1.05,1000
17:51:34.543,-4.03,0.06,-82.12,14.82,-5.0,0.12,0.03,-0.06,1.03,1000
17:51:34.554,-4.11,-0.54,-82.1,15.24,-4.39,3.17,0.05,-0.08,1.0,1000
17:51:34.565,-3.76,-0.93,-82.05,14.15,-2.38,5.0,0.03,-0.04,1.0,1000
17:51:34.577,-3.4,-0.9,-82.0,11.34,1.16,3.9,-0.0,-0.06,0.98,1000
17:51:34.588,-2.98,-0.31,-81.98,7.56,3.66,0.37,-0.03,-0.01,1.02,1000
17:51:34.598,-2.3,-0.08,-81.99,4.02,4.15,-1.83,0.0,-0.01,1.01,1000
17:51:34.610,-2.35,-0.25,-82.01,0.67,3.48,-1.77,0.02,-0.06,1.03,1000
17:51:34.643,-2.47,-0.17,-82.03,-0.43,2.32,-1.77,-0.02,-0.04,1.02,1000
17:51:34.643,-2.43,0.23,-82.06,-1.89,0.12,-2.99,-0.02,-0.06,1.07,1000
17:51:34.643,-2.79,0.17,-82.09,-2.87,-2.2,-2.5,0.02,-0.08,1.05,1000
17:51:34.653,-3.25,-0.27,-82.1,-2.87,-3.9,-0.18,0.03,-0.09,1.07,1000
17:51:34.666,-3.68,-0.7,-82.09,-3.35,-4.51,2.07,0.03,-0.09,1.04,1000
17:51:34.676,-4.06,-0.89,-82.06,-2.56,-3.54,2.38,0.02,-0.11,1.03,1000
17:51:34.700,-4.26,-0.44,-82.05,-1.1,-2.44,0.3,-0.04,-0.07,1.04,1000
17:51:34.701,-4.25,0.01,-82.05,2.62,-2.38,-1.34,-0.03,-0.12,1.02,1000
17:51:34.708,-4.61,0.07,-82.07,7.07,-3.78,-0.73,0.0,-0.1,1.08,1000
17:51:34.719,-4.45,0.08,-82.06,13.05,-4.45,1.52,-0.01,-0.06,1.05,1000
17:51:34.733,-4.16,-0.28,-82.03,17.07,-5.3,4.63,0.04,-0.09,1.07,1000
17:51:34.741,-4.19,-0.93,-81.95,20.12,-4.76,8.9,0.07,-0.09,1.01,1000
17:51:34.753,-3.88,-1.54,-81.84,20.79,-2.01,10.55,0.05,-0.05,1.02,1000
17:51:35.083,0.45,-1.49,0.28,1.52,-0.12,-6.22,0.07,0.0,1.03,1100
17:51:35.095,0.53,-1.72,0.22,-0.85,4.7,-3.6,0.05,-0.01,0.97,1100
17:51:35.105,0.74,-1.67,0.18,-0.3,6.16,-1.59,0.06,0.08,1.03,1100
17:51:36.073,0.29,-3.07,-0.19,-10.3,7.5,-3.17,0.18,-0.29,1.06,1130
17:51:36.083,-0.22,-3.14,-0.18,7.44,7.74,-0.67,-0.25,-0.34,1.1,1130
17:51:36.095,-0.29,-2.72,-0.17,10.43,2.13,2.38,-0.27,-0.3,1.13,1130
17:51:36.107,-0.63,-2.34,-0.17,16.28,0.37,2.5,-0.02,0.07,1.02,1130
17:51:37.062,0.53,-2.07,-0.03,18.35,-18.48,3.48,0.0,0.17,0.9,1210
17:51:40.076,-2.78,-4.19,3.1,11.89,-0.91,-0.12,0.05,-0.2,1.13,1270
17:51:43.102,-0.88,-4.23,-25.34,-47.38,0.12,-9.88,-0.08,-1.7,1.04,1270
17:51:44.113,-0.57,-5.79,-25.83,15.24,-7.26,10.24,0.54,0.95,0.6,1270
17:51:44.124,-1.59,-5.0,-25.69,-34.63,-9.88,13.11,-0.2,-1.07,0.94,1270
17:51:44.136,-1.44,-5.88,-25.57,33.41,2.26,10.73,0.58,0.43,0.84,1270
17:51:45.147,-2.02,-3.91,-29.56,-15.61,-5.43,-5.3,-0.09,-1.09,0.78,1270
17:51:47.162,0.06,-5.1,-26.5,7.56,11.46,5.3,0.73,0.7,0.89,1270
17:51:48.172,3.07,-5.74,-27.89,-10.98,5.43,-1.46,0.51,1.25,0.74,1270
17:51:48.183,0.24,-4.49,-27.91,4.09,-9.63,-3.48,-0.08,-1.12,0.94,1270
17:51:48.194,-0.03,-4.47,-27.91,6.28,15.61,0.37,0.66,1.25,0.91,1270
17:51:48.206,-0.95,-3.46,-27.92,-22.56,-3.05,1.16,-0.48,-0.72,1.11,1270
17:51:49.217,-0.81,0.02,-28.2,-19.94,-13.78,5.98,-0.05,-0.92,1.03,1270
17:51:50.229,-5.3,1.85,-30.29,27.74,2.26,1.71,-0.14,-0.38,0.9,1270
17:51:50.240,-4.38,1.05,-30.27,-2.38,-8.72,2.13,-0.03,-0.3,1.09,1270
17:51:50.251,-4.66,1.62,-30.24,32.01,-14.21,1.59,-0.13,-0.58,0.99,1270
17:51:50.263,-2.68,0.67,-30.19,5.24,-3.6,1.04,0.33,0.15,0.64,1270
17:51:51.275,-0.96,0.06,-26.04,26.52,-28.41,-12.13,-0.26,-0.12,0.88,1270
17:51:52.297,2.67,0.28,-22.7,31.83,8.05,9.45,-0.09,1.48,0.8,1270
17:51:52.308,2.14,-0.24,-22.61,-25.55,4.15,5.55,-0.48,-1.77,1.19,1270
17:51:52.319,2.6,0.15,-22.53,55.91,15.3,8.05,-0.02,1.24,0.77,1270
17:51:53.333,2.14,1.0,-27.03,5.12,24.88,8.23,-0.08,0.47,1.03,1270
17:51:55.344,1.48,-0.72,-21.96,-68.66,-0.12,-0.06,-0.11,-0.74,0.83,1270
17:51:56.379,-0.04,-0.32,-27.95,-25.85,-1.59,21.52,-0.01,-0.42,1.28,1270
17:51:56.382,-1.87,-0.32,-27.8,32.13,10.73,19.33,0.12,0.03,1.33,1270
17:51:56.403,0.69,-0.96,-27.66,8.72,4.02,21.77,0.06,0.74,1.25,1270
17:51:57.376,3.53,-0.89,-23.67,-80.49,2.07,-14.94,0.47,0.57,1.59,1270
17:51:57.380,2.98,-0.21,-23.84,42.99,-16.52,-17.44,-0.23,-1.15,1.28,1270
17:51:57.396,6.47,-1.52,-24.04,-72.07,6.22,-12.5,0.07,0.39,0.93,1270
17:51:59.405,4.42,-0.03,-21.46,-53.78,7.01,6.34,-0.55,0.0,1.0,1270
17:52:00.415,3.16,-0.53,-25.03,17.2,2.2,18.48,0.21,1.25,0.78,1270
17:52:00.425,1.36,-0.76,-24.87,-10.61,15.24,9.39,-0.65,-1.51,1.08,1270
17:52:00.437,1.03,-0.47,-24.71,30.55,14.82,12.44,0.22,1.2,0.77,1270
17:52:00.451,2.37,-0.56,-24.54,-46.59,11.65,16.65,-0.59,-0.43,1.19,1270
17:52:00.459,1.02,-0.27,-24.38,39.02,-2.5,14.94,0.2,0.26,1.09,1270
17:52:02.416,-0.12,2.18,-26.07,11.34,-30.91,9.33,0.23,0.82,0.64,1270
17:52:04.432,1.08,-2.0,-12.6,-36.59,3.6,-7.07,-0.31,-1.49,0.89,1270
17:52:05.443,-0.7,2.75,-18.58,18.17,-30.79,31.83,0.12,-0.08,1.22,1270
17:52:05.462,-0.16,0.35,-18.3,-2.68,15.49,30.85,0.19,0.19,1.44,1270
17:52:05.464,-0.65,2.85,-18.04,30.37,-22.2,24.82,-0.4,0.35,0.98,1270
17:52:05.476,1.87,1.5,-17.79,-58.05,-26.1,24.27,0.47,-0.62,0.77,1270
17:52:07.488,3.24,0.21,-20.25,-2.44,21.52,14.76,0.24,1.75,0.57,1270
17:52:08.499,-3.31,-4.38,-24.56,-22.93,-2.44,61.52,0.17,-0.3,1.05,1270
17:52:08.512,-4.75,-5.18,-23.93,32.38,21.89,62.5,0.29,-0.02,1.32,1270
17:52:08.534,-3.12,-5.36,-23.28,0.98,16.34,63.78,-0.09,0.5,1.1,1270
17:52:08.534,-3.65,-4.83,-22.62,-15.67,0.55,63.35,0.1,-0.47,0.99,1270
17:52:10.547,1.83,-2.97,-21.69,-13.41,6.46,-37.8,0.5,0.66,0.44,1270
17:52:11.568,0.6,6.5,-25.06,6.95,44.88,-28.54,-0.29,0.18,1.07,1000
17:52:11.581,-0.02,7.87,-25.42,1.28,41.1,-35.55,-0.04,0.3,1.06,1000
17:52:11.605,-0.41,9.1,-25.82,-2.38,34.15,-36.22,-0.02,0.2,1.19,1000
17:52:11.606,-0.33,10.64,-26.24,-11.95,15.73,-40.49,-0.08,0.17,1.13,1000
17:52:11.612,-0.45,11.62,-26.7,-6.22,-9.57,-40.67,-0.14,0.25,1.03,1000
17:52:11.623,-1.21,12.53,-27.18,-2.01,-30.0,-44.88,-0.1,0.2,0.92,1000
17:52:11.634,-1.47,13.16,-27.69,1.16,-43.9,-45.73,-0.08,0.14,0.78,1000
17:52:11.645,-1.4,13.55,-28.23,9.88,-60.3,-52.07,-0.16,0.01,0.58,1000
17:52:11.656,-1.3,12.84,-28.8,8.78,-68.41,-52.93,-0.24,-0.17,0.83,1000
17:52:11.667,-1.05,11.74,-29.4,-8.6,-67.93,-57.01,-0.24,-0.33,0.88,1000
17:52:11.678,-0.1,9.81,-30.02,-20.37,-59.76,-56.59,-0.18,-0.14,0.87,1000
17:52:11.694,-0.39,7.44,-30.66,-25.79,-45.98,-58.9,-0.09,0.02,0.95,1000
17:52:11.716,-1.0,6.12,-31.32,-21.46,-35.18,-60.55,0.03,0.01,0.92,1000
17:52:11.716,-1.31,4.52,-31.99,-15.3,-33.17,-62.38,0.15,0.04,0.82,1000
17:52:11.722,-1.45,3.14,-32.68,-12.74,-24.94,-63.29,0.11,0.02,0.85,1000
17:52:11.733,-1.6,1.89,-33.38,-13.29,-7.07,-63.66,-0.01,0.01,0.88,1000
17:52:11.744,-2.03,0.78,-34.11,-11.52,6.89,-66.77,0.03,-0.04,0.91,1000
17:52:11.758,-1.56,0.38,-34.84,-12.87,15.91,-68.35,0.11,-0.04,0.95,1000
17:52:11.766,-1.31,0.54,-35.6,-12.32,29.76,-69.82,0.0,0.04,1.05,1000
17:52:11.779,-1.16,0.88,-36.38,-15.73,44.45,-71.71,-0.05,0.03,1.12,1000
17:52:11.788,-0.94,1.64,-37.19,-16.16,47.74,-75.49,-0.06,0.02,1.13,1000
17:52:11.810,-0.48,3.37,-38.02,-22.26,48.96,-75.49,-0.16,0.04,1.21,1000
17:52:11.813,-0.37,4.79,-38.87,-21.59,51.22,-79.94,-0.19,0.03,1.09,1000
17:52:11.823,-0.22,6.5,-39.76,-21.65,44.82,-82.56,-0.31,-0.02,1.17,1000
17:52:11.835,-0.07,8.63,-40.68,-19.51,34.57,-84.7,-0.28,0.04,1.11,1000
17:52:11.846,-0.05,10.35,-41.64,-17.74,25.73,-88.11,-0.31,-0.03,1.18,1000
17:52:11.862,-0.02,11.97,-42.62,-16.16,10.06,-90.24,-0.32,0.0,1.13,1000
17:52:11.865,-0.26,13.0,-43.63,-13.29,-1.34,-93.35,-0.39,-0.02,1.2,1000
17:52:11.877,-0.75,13.76,-44.66,-6.16,-15.3,-94.88,-0.32,-0.06,1.17,1000
17:52:11.887,-1.06,14.18,-45.72,-3.72,-24.09,-96.71,-0.33,-0.1,1.17,1000
17:52:11.898,-1.72,13.94,-46.79,4.57,-30.3,-98.72,-0.28,-0.12,1.17,1000
17:52:11.910,-2.03,13.58,-47.87,9.63,-32.38,-97.8,-0.27,-0.07,1.17,1000
17:52:11.920,-2.5,12.54,-48.96,18.29,-28.35,-99.51,-0.16,-0.1,1.16,1000
17:52:11.931,-2.74,11.76,-50.05,22.99,-27.2,-99.21,-0.22,-0.1,1.2,1000
17:52:11.942,-2.98,10.62,-51.15,28.48,-21.1,-100.12,-0.11,-0.06,1.13,1000
17:52:11.953,-2.99,9.71,-52.25,31.89,-15.0,-99.45,-0.14,-0.08,1.09,1000
17:52:11.964,-2.82,8.5,-53.35,36.71,-4.33,-100.73,-0.07,-0.03,1.09,1000
17:52:11.982,-2.52,7.67,-54.46,36.83,7.68,-100.61,-0.05,-0.06,1.1,1000
17:52:11.986,-2.29,6.83,-55.57,39.57,20.91,-102.32,-0.05,-0.08,1.13,1000
17:52:11.998,-1.91,6.4,-56.7,38.23,31.59,-101.77,-0.11,-0.06,1.16,1000
17:52:12.015,-1.64,6.14,-57.82,37.2,39.88,-102.62,-0.04,-0.05,1.14,1000
17:52:12.030,-1.2,6.11,-58.96,35.49,49.02,-104.33,-0.1,0.0,1.16,1000
17:52:12.031,-0.78,6.57,-60.1,32.62,52.38,-104.15,-0.17,-0.04,1.11,1000
17:52:12.041,-0.63,6.99,-61.26,32.74,53.78,-105.79,-0.15,-0.03,1.13,1000
17:52:12.054,-0.29,7.62,-62.43,31.83,53.72,-106.46,-0.17,-0.02,1.07,1000
17:52:12.067,-0.12,8.41,-63.61,31.34,49.57,-108.35,-0.21,-0.03,1.07,1000
17:52:12.075,-0.13,9.14,-64.8,31.1,44.09,-108.05,-0.18,-0.01,1.07,1000
17:52:12.092,-0.08,9.75,-66.0,30.24,38.78,-110.06,-0.21,-0.02,1.08,1000
17:52:12.096,-0.23,10.4,-67.11,30.91,32.68,-110.43,-0.24,-0.05,1.07,1000
17:52:12.119,-0.45,11.01,-68.43,30.61,24.21,-111.22,-0.21,-0.04,1.03,1000
17:52:12.120,-0.62,11.35,-69.65,29.45,18.48,-111.4,-0.18,-0.05,0.99,1000
17:52:12.146,-0.75,11.59,-70.77,28.48,12.74,-111.34,-0.22,-0.06,1.0,1000
17:52:12.146,-1.09,11.91,-72.11,30.12,8.35,-112.32,-0.21,-0.06,0.94,1000
17:52:12.151,-1.31,11.87,-73.35,29.45,3.41,-113.11,-0.16,-0.05,0.96,1000
17:52:12.162,-1.42,11.94,-74.59,28.11,0.49,-112.2,-0.2,-0.04,1.01,1000
17:52:12.173,-1.7,11.86,-75.82,29.02,-0.79,-113.05,-0.21,-0.07,1.03,1000
17:52:12.185,-1.97,11.52,-77.06,27.26,-2.56,-112.32,-0.18,-0.05,1.02,1000
17:52:12.195,-1.85,11.17,-78.3,23.66,-0.73,-111.65,-0.2,-0.04,1.0,1000
17:52:12.216,-1.71,11.0,-79.53,21.28,-0.98,-112.07,-0.2,-0.03,0.95,1000
17:52:12.225,-1.7,10.78,-80.77,19.09,-0.79,-113.05,-0.16,-0.04,0.94,1000
17:52:12.228,-1.62,10.6,-82.01,16.59,1.46,-112.07,-0.16,-0.04,0.89,1000
17:52:12.241,-1.43,10.57,-83.25,14.33,3.72,-113.72,-0.2,-0.02,0.97,1000
17:52:12.250,-1.43,10.62,-84.5,11.52,5.98,-113.17,-0.19,-0.04,0.97,1000
17:52:12.261,-1.47,10.66,-85.75,7.32,5.61,-113.6,-0.18,-0.06,1.03,1000
17:52:12.272,-1.48,10.77,-86.99,4.02,5.55,-113.29,-0.2,-0.02,1.01,1000
17:52:12.283,-1.41,10.89,-88.24,0.79,4.7,-114.27,-0.2,-0.02,0.98,1000
17:52:12.296,-1.38,10.99,-89.5,-0.24,6.04,-114.15,-0.19,-0.0,0.94,1000
17:52:12.307,-1.37,10.98,-90.75,-1.89,6.83,-113.78,-0.18,0.01,0.98,1000
17:52:12.323,-1.28,10.85,-92.0,-3.35,6.65,-114.7,-0.16,-0.0,0.95,1000
17:52:12.333,-1.28,10.67,-93.27,-4.09,8.11,-114.57,-0.15,0.0,0.97,1000
17:52:12.338,-1.43,10.64,-94.53,-5.3,8.84,-114.09,-0.19,-0.02,0.98,1000
17:52:12.354,-1.71,10.6,-95.79,-5.98,9.45,-114.27,-0.18,-0.03,0.99,1000
17:52:12.360,-1.89,10.51,-97.04,-6.04,10.98,-114.45,-0.15,-0.04,0.96,1000
17:52:12.377,-2.21,10.57,-98.3,-4.45,11.77,-114.15,-0.18,-0.03,1.0,1000
17:52:12.383,-2.49,10.77,-99.55,-2.68,9.88,-112.07,-0.19,-0.04,0.99,1000
17:52:12.393,-2.75,11.02,-100.78,-1.22,8.29,-111.77,-0.21,-0.06,1.0,1000
17:52:12.412,-3.06,11.3,-102.01,2.26,5.98,-110.98,-0.2,-0.06,0.95,1000
17:52:12.421,-3.35,11.5,-103.11,6.71,4.27,-110.73,-0.22,-0.07,0.98,1000
17:52:12.427,-3.77,11.69,-104.43,11.28,2.2,-109.02,-0.23,-0.09,0.97,1000
17:52:12.437,-4.05,11.93,-105.61,15.3,0.73,-106.46,-0.21,-0.07,1.0,1000
17:52:12.449,-4.26,12.14,-106.78,18.48,-0.12,-106.16,-0.25,-0.11,1.02,1000
17:52:12.461,-4.47,12.34,-107.94,22.99,-2.87,-103.6,-0.25,-0.12,1.06,1000
17:52:12.477,-5.08,12.91,-109.07,31.34,-13.66,-100.91,-0.37,-0.17,1.21,1000
17:52:12.481,-4.94,13.25,-110.18,26.16,0.43,-100.49,-0.44,-0.2,0.9,1000
17:52:12.494,-5.01,13.08,-111.18,36.28,-8.17,-92.68,-0.41,0.08,1.13,1000
17:52:12.506,-4.76,13.02,-112.16,46.65,-17.2,-92.13,0.01,0.08,1.11,1000
17:52:12.515,-4.28,12.41,-113.12,51.59,-8.66,-86.71,-0.15,-0.06,1.01,1000
17:52:12.531,-4.23,12.47,-114.04,53.05,-12.56,-81.34,-0.33,-0.02,1.06,1000
17:52:12.538,-3.3,12.56,-114.89,46.59,-15.67,-74.45,-0.24,0.05,1.0,1000
17:52:12.550,-2.26,12.96,-115.62,41.59,-12.93,-60.61,-0.24,-0.02,1.12,1000
17:52:12.558,-1.44,13.07,-116.2,39.27,-14.09,-47.44,-0.26,-0.05,0.99,1000
17:52:12.574,-0.54,12.6,-116.64,37.01,-13.9,-35.73,-0.2,-0.0,1.07,1000
17:52:12.582,-0.25,11.69,-116.97,33.78,-11.71,-28.05,-0.13,-0.02,0.99,1000
17:52:12.591,-0.31,10.7,-117.25,32.5,-11.83,-23.17,-0.16,-0.05,1.02,1000
17:52:12.602,-0.67,10.06,-117.49,35.18,-13.17,-21.16,-0.21,-0.08,0.97,1000
17:52:12.616,-1.3,10.54,-117.71,37.38,-19.27,-20.49,-0.27,-0.11,1.04,1000
17:52:12.632,-1.94,10.79,-117.95,41.95,-25.06,-22.01,-0.25,-0.09,1.02,1000
17:52:12.635,-2.35,11.13,-118.2,42.87,-29.57,-22.56,-0.27,-0.09,1.05,1000
17:52:12.646,-2.77,11.8,-118.44,42.07,-34.51,-22.5,-0.27,-0.11,1.05,1000
17:52:12.657,-3.3,12.31,-118.7,40.49,-38.35,-23.11,-0.29,-0.15,1.07,1000
17:52:12.668,-3.79,12.68,-118.96,39.33,-40.18,-24.51,-0.31,-0.1,1.07,1000
17:52:12.684,-3.62,12.29,-119.23,35.85,-39.82,-22.8,-0.18,-0.06,1.06,1000
17:52:12.692,-2.93,11.3,-119.47,32.2,-35.85,-20.12,-0.15,0.01,1.1,1000
17:52:12.701,-1.85,9.52,-119.65,26.59,-29.39,-14.21,-0.03,0.02,1.08,1000
17:52:12.712,-0.98,7.54,-119.77,21.34,-19.09,-8.23,0.02,0.03,1.09,1000
17:52:12.742,0.1,5.23,-119.82,15.85,-10.06,-1.22,0.02,0.09,1.07,1000
17:52:12.742,1.03,3.39,-119.79,8.9,0.79,6.52,0.09,0.09,1.06,1000
17:52:12.747,1.61,2.27,-119.67,6.52,11.04,14.63,0.05,0.07,1.06,1000
17:52:12.756,2.14,1.79,-119.46,1.95,17.38,22.99,0.01,0.07,1.02,1000
17:52:12.769,2.39,2.14,-119.16,-1.4,21.1,29.94,-0.09,0.07,0.99,1000
17:52:12.786,2.19,3.03,-118.78,-1.46,27.5,37.44,-0.08,-0.0,0.97,1000
17:52:12.789,1.18,3.69,-118.34,-1.95,36.83,41.46,-0.11,-0.04,1.03,1000
17:52:12.805,-0.01,4.24,-117.87,-2.8,45.67,43.48,-0.1,-0.05,1.09,1000
17:52:12.822,-1.88,7.57,-117.38,-5.06,52.5,44.21,-0.66,-0.26,1.07,1000
17:52:12.836,-4.23,12.3,-116.92,-10.49,60.85,40.91,-0.38,-0.18,1.07,1000
17:52:12.836,-5.21,15.22,-116.47,-10.43,59.15,40.85,-0.44,-0.12,1.04,1000
17:52:12.845,-5.02,16.31,-116.01,-12.87,54.15,42.38,-0.35,-0.03,0.99,1000
17:52:12.861,-4.39,16.61,-115.53,-15.55,43.6,44.39,-0.27,0.01,1.1,1000
17:52:12.875,-3.67,16.25,-115.05,-17.01,24.45,44.21,-0.21,0.06,1.12,1000
17:52:12.880,-2.89,15.09,-114.57,-18.11,3.41,43.05,-0.17,0.03,1.13,1000
17:52:12.889,-2.14,13.09,-114.11,-19.09,-11.46,41.28,-0.08,0.05,1.01,1000
17:52:12.908,-1.01,10.74,-113.66,-21.16,-18.66,41.46,-0.03,0.1,1.01,1000
17:52:12.910,0.58,8.36,-113.19,-24.51,-24.63,43.96,-0.04,0.12,1.01,1000
17:52:12.935,1.95,6.83,-112.69,-28.41,-33.41,47.38,-0.09,0.17,1.08,1000
17:52:12.939,3.31,5.71,-112.14,-30.61,-46.28,53.05,-0.09,0.15,1.03,1000
17:52:12.943,4.25,4.59,-111.52,-27.68,-60.0,58.96,-0.04,0.22,1.05,1000
17:52:12.954,4.92,3.23,-110.83,-25.91,-72.2,65.12,-0.07,0.14,1.04,1000
17:52:12.973,4.78,1.73,-110.08,-21.52,-85.98,70.0,-0.01,0.06,1.02,1000
17:52:12.976,4.72,0.36,-109.36,-19.88,-99.51,73.17,0.04,0.08,1.07,1000
17:52:12.987,4.47,-1.26,-108.46,-13.78,-113.41,75.79,0.04,0.05,1.04,1000
17:52:12.998,4.01,-2.69,-107.61,-10.49,-127.93,77.56,0.04,0.08,1.09,1000
17:52:13.009,3.02,-4.49,-106.77,-6.77,-140.79,75.3,0.08,-0.02,1.05,1000
17:52:13.020,1.78,-6.9,-105.97,-2.8,-150.55,69.63,0.2,-0.05,1.08,1000
17:52:13.035,0.77,-9.25,-105.25,4.94,-149.21,62.32,0.23,0.01,1.23,1000
17:52:13.047,0.72,-10.77,-104.59,-2.2,-145.0,56.83,0.16,0.03,1.15,1000
17:52:13.056,0.91,-11.79,-103.98,-9.76,-130.79,52.87,0.14,-0.0,1.01,1000
17:52:13.065,1.07,-12.78,-103.43,-14.02,-108.9,48.29,0.2,-0.0,1.02,1000
17:52:13.094,1.11,-13.75,-102.93,-20.18,-85.85,42.38,0.23,0.02,0.99,1000
17:52:13.094,1.34,-14.17,-102.5,-26.65,-64.63,36.28,0.19,0.06,1.01,1000
17:52:13.097,1.54,-14.27,-102.16,-32.2,-49.94,31.46,0.22,0.05,0.98,1000
17:52:13.108,1.23,-14.52,-101.84,-38.48,-37.68,23.11,0.24,0.04,1.02,1000
17:52:13.120,0.68,-14.47,-101.64,-39.63,-32.74,15.43,0.22,0.02,1.03,1000
17:52:13.131,0.26,-14.57,-101.5,-36.46,-32.99,10.43,0.26,0.03,1.06,1000
17:52:13.144,-0.01,-15.02,-101.41,-28.35,-33.35,6.4,0.29,0.01,1.04,1000
17:52:13.152,-0.29,-15.56,-101.36,-19.27,-36.89,3.41,0.28,-0.01,1.01,1000
17:52:13.168,-0.52,-15.96,-101.35,-5.06,-38.29,0.49,0.27,-0.02,1.05,1000
17:52:13.174,-0.81,-16.23,-101.36,2.56,-40.73,-3.17,0.28,-0.06,1.03,1000
17:52:13.194,-1.02,-16.6,-101.45,7.8,-44.7,-9.27,0.28,-0.04,1.05,1000
17:52:13.197,-1.16,-16.84,-101.58,6.95,-49.33,-14.94,0.28,-0.04,1.04,1000
17:52:13.207,-1.05,-17.18,-101.78,2.38,-54.63,-19.63,0.31,0.02,1.06,1000
17:52:13.218,-0.45,-17.45,-102.01,-3.96,-57.2,-21.52,0.31,0.04,1.03,1000
17:52:13.244,0.17,-18.04,-102.24,-11.04,-59.15,-20.91,0.34,0.04,1.06,1000
17:52:13.244,0.81,-18.35,-102.46,-17.56,-58.48,-18.11,0.32,0.07,1.1,1000
17:52:13.251,1.05,-18.5,-102.63,-23.23,-56.22,-13.84,0.31,0.03,1.11,1000
17:52:13.262,1.11,-18.59,-102.75,-25.3,-49.57,-8.05,0.36,0.04,1.14,1000
17:52:13.273,0.77,-18.93,-102.8,-24.45,-39.63,-1.65,0.39,-0.0,1.17,1000
17:52:13.284,0.12,-19.45,-102.78,-21.22,-28.54,4.88,0.44,-0.06,1.16,1000
17:52:13.297,-0.45,-19.42,-102.68,-19.94,-20.12,11.28,0.34,0.03,1.2,1000
17:52:13.307,-0.56,-18.98,-102.51,-9.15,-6.1,19.27,0.34,0.0,1.16,1000
17:52:13.317,-0.19,-18.64,-102.24,-4.02,3.41,28.29,0.38,0.05,1.14,1000
17:52:13.328,0.32,-18.29,-101.89,-3.6,11.1,34.57,0.34,0.03,1.11,1000
17:52:13.349,0.88,-17.76,-101.48,-3.78,17.93,38.66,0.33,0.06,1.11,1000
17:52:13.352,1.16,-18.01,-101.05,-10.24,23.29,38.84,0.41,0.03,1.07,1000
17:52:13.361,0.88,-18.26,-100.64,-17.68,25.67,35.85,0.4,-0.01,1.11,1000
17:52:13.372,0.32,-18.3,-100.28,-25.55,25.73,31.28,0.4,-0.02,1.12,1000
17:52:13.383,-0.31,-18.8,-99.96,-26.77,32.01,26.71,0.43,-0.06,0.97,1000
17:52:13.394,-1.01,-19.21,-99.68,-43.29,24.51,24.21,0.42,-0.03,1.12,1000
17:52:13.405,-1.67,-19.23,-99.42,-42.13,30.12,22.8,0.4,-0.06,1.1,1000
17:52:13.416,-3.03,-19.15,-99.18,-48.11,33.41,21.22,0.38,-0.13,1.07,1000
17:52:13.433,-4.23,-18.43,-98.95,-42.8,43.84,21.16,0.34,-0.13,1.12,1000
17:52:13.439,-5.2,-17.99,-98.71,-44.82,47.74,22.87,0.38,-0.15,1.08,1000
17:52:13.454,-6.11,-17.5,-98.44,-42.13,57.44,25.3,0.33,-0.14,1.05,1000
17:52:13.463,-6.73,-17.2,-98.14,-39.7,66.1,29.76,0.37,-0.14,1.01,1000
17:52:13.473,-7.19,-16.67,-97.79,-31.4,75.55,34.09,0.32,-0.1,1.0,1000
17:52:13.486,-7.49,-15.7,-97.38,-19.51,84.15,38.9,0.26,-0.08,0.96,1000
17:52:13.494,-7.66,-14.91,-96.93,-12.32,87.38,42.38,0.28,-0.13,0.9,1000
17:52:13.506,-8.65,-14.4,-96.47,-1.1,90.06,41.1,0.26,-0.22,0.94,1000
17:52:13.516,-9.97,-13.64,-96.04,6.16,89.27,37.38,0.26,-0.27,0.94,1000
17:52:13.526,-11.15,-12.66,-95.65,11.34,87.44,35.0,0.21,-0.27,0.97,1000
17:52:13.550,-11.76,-11.59,-95.26,13.72,84.7,36.1,0.19,-0.24,0.95,1000
17:52:13.551,-11.89,-10.66,-94.84,13.23,83.72,39.82,0.18,-0.2,0.92,1000
17:52:13.559,-11.46,-9.7,-94.36,10.79,80.61,45.55,0.14,-0.14,0.9,1000
17:52:13.570,-10.62,-8.37,-93.82,6.95,76.28,51.89,0.09,-0.12,0.85,1000
17:52:13.582,-9.79,-6.91,-93.22,4.63,73.17,56.71,0.07,-0.12,0.81,1000
17:52:13.592,-9.88,-5.77,-92.58,0.12,70.98,58.48,0.06,-0.17,0.81,1000
17:52:13.603,-11.09,-4.7,-91.94,-2.5,68.96,57.38,0.05,-0.24,0.85,1000
17:52:13.614,-12.16,-3.15,-91.32,-4.51,65.43,57.5,0.0,-0.24,0.92,1000
17:52:13.627,-12.59,-2.01,-90.66,-5.73,60.0,60.91,0.02,-0.19,0.89,1000
17:52:13.636,-12.43,-1.37,-89.95,-5.73,55.55,67.5,0.02,-0.15,0.88,1000
17:52:13.649,-11.76,-0.25,-89.17,-2.99,51.1,75.06,-0.06,-0.14,0.87,1000
17:52:13.662,-10.81,1.59,-88.29,0.91,45.12,83.05,-0.12,-0.09,0.87,1000
17:52:13.671,-9.68,3.25,-87.33,4.39,39.88,90.43,-0.1,-0.09,0.82,1000
17:52:13.681,-9.09,4.61,-86.3,6.65,36.16,94.33,-0.12,-0.11,0.83,1000
17:52:13.691,-9.19,5.49,-85.26,7.62,33.78,94.57,-0.09,-0.17,0.84,1000
17:52:13.703,-10.03,5.99,-84.23,8.84,33.05,92.44,-0.11,-0.21,0.86,1000
17:52:13.714,-10.34,6.82,-83.22,10.18,30.55,91.83,-0.14,-0.17,0.9,1000
17:52:13.724,-10.04,7.75,-82.2,13.84,29.27,93.6,-0.15,-0.13,0.85,1000
17:52:13.757,-9.42,8.68,-81.25,17.5,27.87,96.34,-0.18,-0.09,0.87,1000
17:52:13.757,-7.97,10.17,-80.07,20.06,21.77,100.79,-0.25,-0.01,0.86,1000
17:52:13.757,-5.31,12.32,-78.93,20.0,15.0,104.76,-0.27,0.05,0.81,1000
17:52:13.768,-3.18,13.59,-77.78,15.37,12.74,103.96,-0.19,0.01,0.75,1000
17:52:13.779,-3.8,13.07,-76.69,7.56,13.54,94.02,-0.12,-0.15,0.82,1000
17:52:13.791,-5.43,12.8,-75.73,2.01,15.61,81.28,-0.18,-0.19,0.88,1000
17:52:13.801,-6.59,12.74,-74.9,-0.12,17.68,71.65,-0.18,-0.15,0.9,1000
17:52:13.812,-6.86,12.52,-74.14,3.17,21.1,68.6,-0.16,-0.1,0.84,1000
17:52:13.823,-6.63,12.47,-73.38,10.55,22.93,70.24,-0.17,-0.08,0.87,1000
17:52:13.836,-5.67,13.09,-72.57,19.57,20.98,76.1,-0.24,-0.02,0.84,1000
17:52:13.861,-4.12,14.06,-71.69,25.49,17.07,83.66,-0.24,0.03,0.81,1000
17:52:13.861,-2.34,14.9,-70.73,25.37,9.45,90.0,-0.24,0.06,0.81,1000
17:52:13.873,-0.92,15.03,-69.71,18.48,5.49,92.93,-0.14,0.01,0.74,1000
17:52:13.878,-1.64,13.44,-68.71,7.44,2.68,88.6,-0.05,-0.14,0.85,1000
17:52:13.889,-3.49,11.8,-67.77,-0.43,2.2,83.05,-0.12,-0.13,0.89,1000
17:52:13.900,-3.81,10.6,-66.86,-2.68,0.79,84.45,-0.09,-0.05,0.96,1000
17:52:13.917,-3.0,10.07,-65.89,1.16,0.0,91.04,-0.17,0.02,0.92,1000
17:52:13.926,-1.9,10.67,-64.84,7.44,-1.52,99.09,-0.24,0.06,0.95,1000
17:52:13.933,0.04,11.78,-63.7,12.38,-6.22,107.07,-0.27,0.13,0.9,1000
17:52:13.946,2.31,12.61,-62.49,11.16,-11.16,111.34,-0.23,0.15,0.87,1000
17:52:13.967,3.62,12.24,-61.28,3.96,-15.55,108.29,-0.14,0.08,0.88,1000
17:52:13.968,2.96,10.4,-60.15,-7.26,-17.68,96.4,-0.03,-0.07,0.91,1000
17:52:13.977,0.9,8.68,-59.19,-14.82,-18.23,80.37,-0.08,-0.11,1.03,1000
17:52:13.988,-0.41,7.8,-58.39,-16.22,-20.67,68.78,-0.11,-0.06,1.06,1000
17:52:13.999,-0.58,7.2,-57.67,-8.54,-19.45,63.29,-0.11,0.01,1.05,1000
17:52:14.011,-0.21,6.73,-56.99,1.71,-16.95,61.34,-0.11,0.0,1.05,1000
17:52:14.021,0.1,6.61,-56.33,14.45,-15.3,58.66,-0.15,0.02,1.06,1000
17:52:14.032,0.86,7.15,-55.69,23.11,-16.65,56.71,-0.18,0.04,1.03,1000
17:52:14.044,1.45,7.46,-55.09,26.52,-19.57,52.93,-0.13,0.04,1.01,1000
17:52:14.065,1.1,6.43,-54.55,24.33,-21.77,44.82,-0.03,-0.08,1.01,1000
17:52:14.066,-0.39,5.07,-54.14,20.73,-19.94,32.68,-0.04,-0.13,1.06,1000
17:52:14.076,-1.76,4.47,-53.84,15.12,-17.87,23.41,-0.07,-0.14,1.09,1000
17:52:14.088,-2.7,3.86,-53.61,12.2,-10.12,19.51,-0.03,-0.13,1.03,1000
17:52:14.098,-4.19,3.41,-53.4,10.0,-4.82,19.51,-0.07,-0.19,1.06,1000
17:52:14.119,-5.33,4.23,-53.15,9.7,-3.66,26.46,-0.15,-0.18,1.05,1000
17:52:14.121,-6.11,6.81,-52.78,2.07,-18.48,40.12,-0.24,-0.32,1.14,1000
17:52:14.131,-5.16,7.33,-52.25,-0.49,-9.21,56.04,-0.2,0.08,0.89,1000
17:52:14.144,-5.09,8.18,-51.54,2.07,-16.59,70.0,-0.19,-0.06,1.03,1000
17:52:14.154,-5.11,7.65,-50.71,10.55,-12.26,79.15,-0.08,-0.12,0.88,1000
17:52:14.166,-5.73,7.11,-49.82,16.95,-5.3,80.91,-0.14,-0.13,1.06,1000
17:52:14.175,-5.52,7.24,-48.93,26.52,1.1,81.4,-0.12,-0.07,0.94,1000
17:52:14.186,-5.17,7.58,-48.05,35.24,4.33,79.88,-0.18,-0.07,1.0,1000
17:52:14.203,-4.06,8.66,-47.17,42.99,1.52,79.27,-0.25,0.03,1.0,1000
17:52:14.212,-2.0,9.79,-46.3,47.5,-4.39,80.37,-0.25,0.13,0.97,1000
17:52:14.219,1.11,10.57,-45.41,45.0,-11.77,80.0,-0.2,0.17,0.99,1000
17:52:14.240,3.52,10.16,-44.56,37.26,-17.26,74.39,-0.14,0.17,1.0,1000
17:52:14.246,5.32,9.42,-43.81,27.07,-21.16,62.87,-0.14,0.19,1.07,1000
17:52:14.253,6.82,8.32,-43.2,19.82,-30.37,48.96,-0.04,0.22,1.14,1000
17:52:14.263,8.35,7.19,-42.79,10.79,-24.27,30.98,-0.15,0.19,1.12,1000
17:52:14.274,9.52,6.95,-42.55,-0.43,-25.18,15.12,-0.16,0.34,0.94,1000
17:52:14.285,10.02,7.32,-42.46,-5.79,-14.15,2.87,-0.17,0.59,0.97,1000
17:52:14.300,9.09,7.9,-42.5,-48.78,-29.82,-4.21,-0.35,-0.01,1.09,1000
17:52:14.307,7.79,8.56,-42.61,-59.27,-8.78,-9.45,-0.24,0.17,1.08,1000
17:52:14.318,6.45,9.15,-42.72,-75.12,1.59,-9.82,-0.21,0.08,1.07,1000
17:52:14.329,4.32,9.24,-42.83,-83.17,10.85,-9.39,-0.17,-0.07,1.01,1000
17:52:14.356,0.94,8.72,-42.94,-85.91,21.52,-11.52,-0.09,-0.2,1.05,1000
17:52:14.356,-2.08,8.41,-43.08,-84.7,30.37,-13.84,-0.08,-0.27,1.07,1000
17:52:14.401,-5.48,8.22,-43.25,-77.62,36.83,-14.27,-0.13,-0.27,1.1,1000
17:52:14.401,-7.77,8.6,-43.37,-66.1,40.18,-8.84,-0.18,-0.22,1.12,1000
17:52:14.401,-8.82,9.29,-43.41,-53.29,41.22,1.95,-0.21,-0.16,1.1,1000
17:52:14.401,-8.91,10.32,-43.3,-41.71,41.16,16.89,-0.23,-0.13,1.1,1000
17:52:14.407,-9.02,10.61,-43.03,-35.55,41.4,29.94,-0.14,-0.15,1.08,1000
17:52:14.417,-9.67,10.1,-42.63,-34.94,42.87,39.94,-0.12,-0.22,1.1,1000
17:52:14.428,-10.66,9.65,-42.16,-37.74,44.82,45.43,-0.13,-0.24,1.13,1000
17:52:14.439,-11.07,9.38,-41.63,-41.65,46.83,49.51,-0.13,-0.2,1.16,1000
17:52:14.450,-10.95,9.23,-41.1,-44.39,49.57,55.24,-0.16,-0.16,1.16,1000
17:52:14.461,-9.42,9.44,-40.38,-32.99,64.39,64.33,-0.2,0.26,1.0,1000
17:52:14.474,-9.11,10.39,-39.62,-50.98,48.54,75.24,-0.28,-0.24,1.18,1000
17:52:14.483,-8.71,10.98,-38.77,-39.27,69.39,81.16,-0.2,-0.04,1.13,1000
17:52:14.494,-8.41,11.43,-37.84,-47.01,79.45,87.26,-0.21,-0.06,1.14,1000
17:52:14.508,-8.85,12.05,-36.86,-48.9,87.13,90.43,-0.22,-0.21,1.08,1000
17:52:14.529,-9.6,12.48,-35.86,-46.71,95.91,91.22,-0.19,-0.22,1.07,1000
17:52:14.529,-10.68,13.07,-34.87,-43.72,102.74,89.21,-0.23,-0.25,1.05,1000
17:52:14.540,-11.46,14.57,-33.9,-39.88,107.32,87.2,-0.31,-0.22,0.99,1000
17:52:14.554,-11.74,16.38,-32.95,-35.85,108.29,86.28,-0.35,-0.2,0.98,1000
17:52:14.563,-11.56,18.2,-31.99,-30.98,107.93,87.99,-0.42,-0.15,0.93,1000
17:52:14.575,-10.49,21.39,-30.98,-23.66,100.49,93.48,-0.5,-0.09,0.94,1000
17:52:14.583,-9.06,24.16,-29.92,-16.89,89.33,98.72,-0.51,-0.05,0.85,1000
17:52:14.593,-7.68,26.61,-28.81,-12.44,77.38,101.16,-0.5,-0.04,0.82,1000
17:52:14.604,-7.21,28.47,-27.72,-10.24,67.07,96.46,-0.46,-0.12,0.75,1000
17:52:14.615,-8.24,29.38,-26.73,-8.05,57.13,82.62,-0.45,-0.21,0.75,1000
17:52:14.631,-9.14,30.63,-25.93,-4.21,45.3,64.94,-0.53,-0.18,0.77,1000
17:52:14.638,-8.63,32.34,-25.32,0.55,29.76,47.87,-0.59,-0.09,0.78,1000
17:52:14.650,-7.04,33.8,-24.88,4.45,14.94,34.76,-0.57,0.0,0.74,1000
17:52:14.660,-5.46,34.76,-24.58,7.87,2.2,22.2,-0.54,-0.01,0.71,1000
17:52:14.679,-4.28,35.42,-24.43,12.13,-10.67,7.44,-0.6,-0.01,0.76,1000
17:52:14.683,-2.39,36.3,-24.42,16.22,-27.8,-4.21,-0.64,0.07,0.81,1000
17:52:14.692,-0.45,36.22,-24.52,22.01,-43.23,-13.17,-0.57,0.08,0.79,1000
17:52:14.703,0.67,35.13,-24.71,25.73,-53.6,-21.22,-0.48,0.02,0.81,1000
17:52:14.714,0.88,33.4,-25.0,29.33,-60.43,-30.67,-0.46,-0.01,0.84,1000
17:52:14.732,1.75,31.41,-25.38,31.65,-67.2,-35.49,-0.43,0.1,0.87,1000
17:52:14.738,3.52,29.38,-25.75,34.02,-70.18,-32.93,-0.44,0.2,0.97,1000
17:52:14.749,5.15,28.32,-26.06,29.88,-74.63,-23.84,-0.38,0.16,0.91,1000
17:52:14.758,4.97,26.92,-26.3,32.93,-63.66,-20.37,-0.35,0.04,0.76,1000
17:52:14.776,3.09,25.9,-26.53,24.33,-55.85,-21.46,-0.44,-0.19,0.96,1000
17:52:14.782,1.91,25.3,-26.76,22.44,-50.3,-19.57,-0.45,-0.11,0.94,1000
17:52:14.791,1.44,24.57,-26.92,21.89,-47.26,-9.94,-0.43,-0.04,0.94,1000
17:52:14.802,1.04,23.72,-26.98,21.59,-48.23,-1.77,-0.39,-0.06,0.92,1000
17:52:14.815,0.13,22.99,-26.96,23.84,-47.68,4.88,-0.39,-0.13,0.95,1000
17:52:14.825,-0.56,22.22,-26.87,26.28,-46.95,9.33,-0.39,-0.09,1.01,1000
17:52:14.837,-0.62,21.35,-26.74,26.16,-47.44,15.0,-0.38,-0.02,1.05,1000
17:52:14.846,-0.48,20.29,-26.54,24.39,-50.67,20.55,-0.35,-0.06,1.1,1000
17:52:14.857,-0.41,19.16,-26.3,20.3,-46.59,22.62,-0.33,-0.03,1.03,1000
17:52:14.881,-0.11,17.79,-26.07,4.09,-34.51,18.72,-0.29,-0.02,1.21,1000
17:52:14.881,-0.74,16.98,-25.88,3.78,-29.94,16.59,-0.29,-0.03,1.01,1000
17:52:14.891,-0.98,16.28,-25.71,4.21,-20.85,14.45,-0.31,-0.04,1.17,1000
17:52:14.901,-1.05,15.59,-25.56,8.05,-16.52,12.8,-0.28,-0.04,1.05,1000
17:52:14.912,-0.99,15.38,-25.43,10.3,-9.76,11.28,-0.29,-0.01,1.09,1000
17:52:14.923,-0.75,15.09,-25.32,10.67,-7.5,9.45,-0.26,-0.02,1.03,1000
17:52:14.934,-1.07,14.84,-25.24,8.17,-3.9,5.18,-0.25,-0.06,1.01,1000
17:52:14.945,-1.65,14.58,-25.22,7.2,-2.74,0.61,-0.27,-0.07,1.04,1000
17:52:14.956,-1.46,14.81,-25.22,8.84,-5.24,-0.73,-0.31,0.03,1.03,1000
17:52:14.967,-0.56,14.96,-25.22,11.46,-9.33,0.91,-0.3,0.05,1.01,1000
17:52:14.982,0.09,15.16,-25.21,12.32,-12.62,1.65,-0.29,0.02,0.98,1000
17:52:14.991,0.54,15.3,-25.2,11.77,-12.62,0.55,-0.29,0.03,1.01,1000
17:52:15.000,0.8,15.19,-25.2,8.05,-10.67,-1.46,-0.27,-0.01,0.97,1000
17:52:15.011,0.36,15.1,-25.24,4.94,-8.05,-5.06,-0.28,-0.02,1.02,1000
17:52:15.022,0.56,15.22,-25.3,4.21,-7.62,-5.85,-0.28,0.04,1.03,1000
17:52:15.035,0.8,15.25,-25.37,3.48,-7.32,-5.43,-0.28,0.01,1.0,1000
17:52:15.045,0.49,15.06,-25.43,3.48,-4.51,-7.13,-0.27,-0.03,1.01,1000
17:52:15.055,0.1,14.87,-25.53,4.82,-2.32,-9.63,-0.26,-0.03,1.03,1000
17:52:15.068,-0.17,14.67,-25.65,6.28,-1.16,-11.95,-0.25,-0.03,1.03,1000
17:52:15.093,-0.07,14.54,-25.79,7.99,-0.49,-12.8,-0.26,0.02,1.03,1000
17:52:15.093,0.57,14.58,-25.91,8.6,-1.59,-11.34,-0.27,0.05,1.03,1000
17:52:15.103,1.27,14.57,-26.03,6.46,-1.28,-10.18,-0.25,0.05,1.01,1000
17:52:15.116,1.59,14.32,-26.15,2.87,-0.43,-11.83,-0.23,0.03,0.99,1000
17:52:15.122,1.4,14.09,-26.3,0.18,1.59,-15.18,-0.24,-0.01,0.99,1000
17:52:15.148,1.1,14.07,-26.49,0.37,1.28,-17.87,-0.25,0.0,0.99,1000
17:52:15.148,1.17,14.16,-26.69,3.96,-1.46,-17.99,-0.25,0.03,0.98,1000
17:52:15.156,1.47,14.33,-26.88,8.78,-4.39,-16.46,-0.28,0.04,0.97,1000
17:52:15.169,1.88,14.7,-27.04,12.2,-6.46,-14.33,-0.28,0.03,0.93,1000
17:52:15.176,1.56,15.03,-27.2,12.99,-7.07,-15.24,-0.27,-0.02,0.94,1000
17:52:15.191,1.26,15.4,-27.38,13.84,-8.9,-16.52,-0.29,0.0,0.94,1000
17:52:15.198,1.33,15.71,-27.56,15.37,-14.33,-16.71,-0.29,0.02,0.94,1000
17:52:15.215,1.75,15.86,-27.74,16.22,-20.91,-15.67,-0.29,0.04,0.93,1000
17:52:15.220,1.57,16.03,-27.91,14.02,-26.04,-16.1,-0.28,-0.02,0.92,1000
17:52:15.231,0.92,15.89,-28.1,12.07,-26.89,-18.9,-0.27,-0.03,0.95,1000
17:52:15.242,0.4,15.44,-28.33,13.96,-27.38,-22.62,-0.25,-0.03,0.98,1000
17:52:15.253,0.33,14.75,-28.6,19.27,-26.4,-25.67,-0.24,0.0,1.01,1000
17:52:15.264,0.67,14.18,-28.89,24.39,-26.16,-26.34,-0.23,0.03,1.0,1000
17:52:15.277,1.46,13.62,-29.18,26.22,-26.83,-25.3,-0.21,0.08,1.0,1000
17:52:15.294,2.49,12.93,-29.45,24.33,-27.32,-24.02,-0.2,0.09,1.0,1000
17:52:15.298,3.14,12.18,-29.68,19.15,-27.99,-24.15,-0.18,0.08,1.02,1000
17:52:15.308,3.25,11.17,-29.97,9.27,-25.61,-23.72,-0.16,0.03,1.0,1000
17:52:15.319,3.29,10.42,-30.24,2.32,-23.72,-23.23,-0.17,0.03,0.98,1000
17:52:15.330,3.15,9.94,-30.49,-0.12,-22.62,-21.77,-0.15,0.08,1.0,1000
17:52:15.342,3.16,9.81,-30.72,-2.01,-21.1,-20.24,-0.22,0.06,0.99,1000
17:52:15.352,3.14,9.75,-30.93,1.46,-19.45,-19.21,-0.19,0.06,1.03,1000
17:52:15.363,3.05,9.79,-31.12,5.49,-16.95,-15.91,-0.16,0.06,1.01,1000
17:52:15.379,3.1,9.86,-31.3,6.71,-14.82,-16.28,-0.19,0.1,1.0,1000
17:52:15.396,3.34,9.87,-31.49,7.44,-16.77,-17.44,-0.16,0.06,1.0,1000
17:52:15.396,3.5,9.91,-31.68,7.32,-17.87,-18.35,-0.15,0.07,1.0,1000
17:52:15.408,3.77,9.82,-31.89,4.09,-17.87,-20.06,-0.18,0.08,0.99,1000
17:52:15.419,3.82,9.65,-32.13,0.91,-17.99,-22.8,-0.19,0.04,0.97,1000
17:52:15.429,3.46,9.57,-32.4,-2.87,-17.44,-25.79,-0.21,0.03,0.99,1000
17:52:15.441,3.0,9.42,-32.69,-3.29,-16.95,-27.8,-0.18,0.03,1.03,1000
17:52:15.451,2.87,9.18,-32.99,-1.16,-18.11,-27.87,-0.16,0.08,1.04,1000
17:52:15.462,3.16,8.83,-33.3,-0.61,-19.63,-27.99,-0.18,0.09,1.04,1000
17:52:15.473,3.68,8.48,-33.61,-0.67,-23.84,-28.23,-0.14,0.09,1.01,1000
17:52:15.488,4.25,7.97,-33.93,-0.61,-26.46,-29.21,-0.11,0.1,0.97,1000
17:52:15.505,4.53,7.33,-34.25,-2.93,-27.68,-31.34,-0.1,0.1,1.04,1000
17:52:15.506,4.6,6.56,-34.59,-5.06,-26.22,-32.44,-0.07,0.1,1.05,1000
17:52:15.522,4.53,5.66,-34.94,-6.46,-20.98,-31.83,-0.04,0.08,1.04,1000
17:52:15.528,4.52,4.83,-35.29,-5.85,-14.51,-30.85,-0.05,0.07,1.01,1000
17:52:15.539,4.42,4.2,-35.62,-4.45,-8.54,-28.17,-0.04,0.06,1.02,1000
17:52:15.550,4.62,3.69,-35.92,-3.9,-1.83,-24.88,-0.03,0.1,1.05,1000
17:52:15.561,4.78,3.18,-36.17,-5.06,3.78,-21.95,-0.02,0.1,1.07,1000
17:52:15.573,4.75,2.95,-36.41,-7.26,5.43,-21.04,-0.03,0.08,1.04,1000
17:52:15.585,4.89,2.57,-36.64,-8.78,4.7,-21.59,-0.04,0.1,1.0,1000
17:52:15.597,4.84,2.34,-36.89,-8.72,0.73,-23.78,-0.03,0.06,0.96,1000
17:52:15.608,4.83,2.23,-37.16,-7.5,-4.02,-24.82,-0.03,0.09,0.98,1000
17:52:15.616,4.83,2.19,-37.45,-7.68,-7.56,-26.22,-0.05,0.07,0.97,1000
17:52:15.627,5.0,2.19,-37.74,-8.72,-9.76,-27.2,-0.04,0.13,1.03,1000
17:52:15.638,5.44,2.32,-38.04,-11.71,-11.77,-27.93,-0.06,0.15,1.03,1000
17:52:15.652,5.74,2.39,-38.36,-16.34,-11.28,-29.45,-0.06,0.13,1.04,1000
17:52:15.660,5.62,2.48,-38.7,-21.4,-7.32,-33.9,-0.07,0.1,1.04,1000
17:52:15.671,5.14,2.62,-39.12,-25.49,-1.4,-40.67,-0.07,0.06,1.05,1000
17:52:15.715,4.37,2.77,-39.57,-27.2,4.27,-48.41,-0.07,0.05,1.06,1000
17:52:15.715,3.73,3.06,-40.21,-25.79,9.63,-56.59,-0.08,0.04,1.07,1000
17:52:15.715,3.14,3.5,-40.87,-22.13,12.07,-62.62,-0.1,0.02,1.05,1000
17:52:15.715,2.44,4.1,-41.59,-18.9,13.6,-67.99,-0.1,-0.01,1.04,1000
17:52:15.728,1.36,4.77,-42.36,-15.37,14.82,-72.62,-0.12,-0.04,1.05,1000
17:52:15.737,0.64,5.63,-43.19,-10.79,13.54,-75.73,-0.17,-0.02,1.07,1000
17:52:15.748,0.52,6.75,-44.02,-6.46,8.41,-75.24,-0.19,0.03,1.08,1000
17:52:15.769,1.14,7.51,-44.83,-4.21,0.67,-72.8,-0.19,0.09,1.08,1000
17:52:15.776,1.6,8.16,-45.62,-5.3,-4.76,-71.59,-0.19,0.03,1.02,1000
17:52:15.781,1.51,8.44,-46.42,-10.67,-5.91,-73.9,-0.18,0.01,1.05,1000
17:52:15.800,1.14,8.54,-47.26,-16.46,-7.38,-78.11,-0.16,0.01,1.08,1000
17:52:15.803,0.8,8.16,-48.15,-18.6,-9.09,-82.62,-0.12,0.0,1.1,1000
17:52:15.814,0.39,7.5,-49.09,-16.71,-8.6,-87.68,-0.1,-0.02,1.1,1000
17:52:15.827,-0.13,7.02,-50.08,-11.83,-7.56,-91.34,-0.11,-0.03,1.1,1000
17:52:15.841,-0.29,6.75,-51.1,-4.21,-7.87,-93.29,-0.12,-0.0,1.07,1000
17:52:15.858,-0.21,6.44,-52.13,6.65,-5.67,-93.23,-0.1,0.1,1.06,1000
17:52:15.858,-0.1,6.1,-53.16,5.37,-13.78,-93.96,-0.09,-0.07,1.06,1000
17:52:15.869,-0.28,5.59,-54.22,5.3,-14.15,-97.13,-0.08,-0.05,0.99,1000
17:52:15.886,-0.25,5.17,-55.3,3.66,-15.06,-99.63,-0.1,0.02,0.98,1000
17:52:15.891,-0.45,4.68,-56.4,5.85,-19.33,-100.91,-0.05,-0.06,1.07,1000
17:52:15.903,-0.81,4.04,-57.52,5.37,-20.73,-102.62,-0.06,-0.03,0.98,1000
17:52:15.913,-0.88,3.61,-58.66,1.95,-23.17,-103.84,-0.06,-0.01,0.98,1000
17:52:15.924,-0.41,3.11,-59.79,1.95,-25.18,-103.54,-0.05,0.03,0.98,1000
17:52:15.935,-0.31,2.71,-60.93,0.43,-24.09,-103.41,-0.04,0.03,1.03,1000
17:52:15.946,-0.53,2.29,-62.07,-1.77,-25.37,-104.33,-0.02,-0.03,1.01,1000
17:52:15.957,-0.65,1.96,-63.23,-2.13,-24.76,-105.06,-0.03,0.0,1.0,1000
17:52:15.970,-0.71,1.37,-64.38,-2.99,-26.04,-105.24,-0.0,-0.03,0.99,1000
17:52:15.979,-1.11,0.86,-65.54,-2.13,-26.59,-105.91,-0.01,-0.04,0.99,1000
17:52:15.990,-1.39,0.36,-66.71,-0.43,-28.05,-105.85,-0.0,-0.04,0.99,1000
17:52:16.008,-1.51,-0.07,-67.87,2.5,-30.43,-105.18,0.0,-0.02,0.98,1000
17:52:16.014,-1.35,-0.42,-69.02,5.49,-33.66,-104.21,0.0,-0.01,0.98,1000
17:52:16.023,-1.18,-0.8,-70.17,6.89,-37.38,-104.27,0.01,-0.01,0.97,1000
17:52:16.034,-1.17,-1.49,-71.32,6.1,-38.54,-105.61,0.04,-0.04,0.96,1000
17:52:16.045,-1.87,-2.42,-72.5,3.05,-38.54,-109.33,0.07,-0.08,0.98,1000
17:52:16.056,-2.52,-3.1,-73.72,1.52,-37.62,-111.46,0.07,-0.07,1.0,1000
17:52:16.067,-3.01,-3.63,-74.95,1.65,-34.94,-111.22,0.06,-0.08,1.0,1000
17:52:16.079,-3.5,-3.95,-76.16,2.56,-31.71,-108.78,0.05,-0.09,1.0,1000
17:52:16.090,-3.76,-3.9,-77.22,4.15,-27.87,-104.39,0.03,-0.08,0.99,1000
17:52:16.102,-4.14,-3.72,-78.43,5.85,-23.96,-97.68,0.02,-0.1,1.0,1000
17:52:16.111,-4.46,-3.23,-79.46,7.2,-21.4,-90.0,-0.0,-0.09,0.99,1000
17:52:16.122,-4.72,-2.71,-80.4,8.29,-19.21,-81.77,0.0,-0.1,0.98,1000
17:52:16.135,-5.14,-2.31,-81.24,9.21,-17.99,-72.62,-0.0,-0.11,0.97,1000
17:52:16.144,-5.07,-1.87,-81.98,10.24,-19.21,-62.01,-0.01,-0.07,0.97,1000
17:52:16.158,-4.55,-1.36,-82.59,10.91,-21.22,-50.91,-0.02,-0.04,0.95,1000
17:52:16.166,-4.19,-1.1,-83.09,10.49,-23.41,-41.16,-0.01,-0.05,0.94,1000
17:52:16.177,-3.86,-0.96,-83.5,7.93,-24.63,-34.09,0.01,-0.05,0.94,1000
17:52:16.191,-4.4,-1.51,-83.84,3.9,-23.17,-30.73,0.06,-0.14,0.94,1000
17:52:16.215,-5.11,-1.89,-84.18,4.76,-22.62,-29.27,0.04,-0.09,1.04,1000
17:52:16.215,-5.11,-1.9,-84.47,9.88,-24.82,-24.88,0.01,-0.07,1.0,1000
17:52:16.221,-4.41,-1.95,-84.71,14.27,-29.09,-18.9,0.02,-0.04,1.0,1000
17:52:16.232,-3.34,-1.78,-84.88,15.24,-33.78,-13.78,-0.0,0.0,0.98,1000
17:52:16.243,-2.47,-1.89,-85.02,12.44,-37.62,-11.77,0.03,-0.01,0.97,1000
17:52:16.254,-2.32,-2.33,-85.16,6.83,-39.09,-14.45,0.04,-0.04,0.98,1000
17:52:16.265,-2.34,-2.62,-85.34,1.95,-39.7,-18.54,0.05,-0.03,1.02,1000
17:52:16.276,-2.21,-3.16,-85.57,-0.91,-39.33,-22.07,0.07,-0.03,1.02,1000
17:52:16.287,-2.11,-3.6,-85.83,-1.34,-37.44,-24.51,0.06,-0.03,1.02,1000
17:52:16.298,-2.14,-3.93,-86.11,-0.24,-34.39,-26.65,0.07,-0.04,1.03,1000
17:52:16.315,-1.93,-4.03,-86.41,2.07,-30.24,-27.26,0.05,-0.01,1.02,1000
17:52:16.328,-1.65,-4.01,-86.7,4.33,-26.65,-26.52,0.05,-0.01,1.03,1000
17:52:16.331,-1.19,-4.01,-86.99,5.0,-25.61,-25.3,0.05,0.0,1.01,1000
17:52:16.342,-0.77,-4.17,-87.26,3.23,-25.73,-24.33,0.09,-0.0,0.99,1000
17:52:16.353,-1.15,-4.89,-87.53,0.79,-27.2,-25.85,0.11,-0.06,1.01,1000
17:52:16.371,-1.48,-5.34,-87.82,1.04,-28.17,-26.22,0.11,-0.04,1.01,1000
17:52:16.383,-1.68,-5.9,-88.1,3.78,-30.55,-24.02,0.14,-0.04,1.01,1000
17:52:16.386,-1.77,-6.55,-88.34,8.48,-31.95,-20.67,0.14,-0.04,0.98,1000
17:52:16.397,-1.88,-7.18,-88.54,13.23,-31.16,-16.16,0.14,-0.05,0.97,1000
17:52:16.416,-1.84,-7.6,-88.69,18.35,-29.39,-10.67,0.12,-0.03,0.95,1000
17:52:16.419,-1.8,-7.85,-88.77,22.32,-27.13,-5.18,0.13,-0.05,0.95,1000
17:52:16.430,-2.0,-8.18,-88.79,25.55,-24.82,0.24,0.14,-0.06,0.95,1000
17:52:16.443,-1.91,-8.3,-88.75,27.87,-24.88,6.22,0.13,-0.03,0.96,1000
17:52:16.453,-1.59,-8.35,-88.65,27.01,-29.94,12.56,0.13,-0.03,0.96,1000
17:52:16.463,-0.87,-8.34,-88.47,25.3,-35.12,19.51,0.1,0.04,0.95,1000
17:52:16.475,0.37,-8.33,-88.21,19.45,-43.54,25.79,0.12,0.09,0.97,1000
17:52:16.485,1.61,-9.0,-87.89,9.33,-49.51,30.79,0.18,0.05,0.89,1000
17:52:16.506,1.29,-10.11,-87.56,-1.34,-51.28,29.27,0.2,-0.0,0.94,1000
17:52:16.509,1.17,-11.25,-87.28,-8.48,-50.55,28.11,0.25,-0.01,0.94,1000
17:52:16.521,-0.05,-12.66,-86.96,-3.84,-47.87,25.12,0.27,-0.05,0.99,1000
17:52:16.529,-0.54,-13.57,-86.69,6.83,-46.89,25.37,0.26,0.0,1.0,1000
17:52:16.540,-0.13,-14.24,-86.39,20.85,-49.09,29.21,0.27,0.03,1.02,1000
17:52:16.551,0.81,-14.93,-86.04,28.29,-52.01,32.38,0.27,0.06,0.98,1000
17:52:16.562,1.7,-15.58,-85.68,26.04,-53.29,32.38,0.3,0.07,0.97,1000
17:52:16.573,1.75,-16.6,-85.35,17.32,-51.04,28.23,0.35,-0.04,0.94,1000
17:52:16.587,0.65,-17.9,-85.1,7.99,-46.4,19.21,0.34,-0.1,1.01,1000
17:52:16.630,0.39,-18.47,-84.92,8.66,-43.84,14.7,0.33,0.03,1.02,1000
17:52:16.630,0.57,-19.1,-84.76,12.99,-43.23,14.51,0.36,0.05,1.0,1000
17:52:16.630,1.11,-19.68,-84.6,16.59,-43.48,15.85,0.36,0.05,0.99,1000
17:52:16.630,1.52,-20.26,-84.42,16.71,-41.59,15.06,0.37,0.04,0.96,1000
17:52:16.639,1.62,-20.72,-84.27,13.35,-38.48,12.13,0.35,0.03,0.97,1000
17:52:16.650,1.53,-21.13,-84.16,9.21,-34.51,7.87,0.39,-0.0,0.97,1000
17:52:16.661,0.92,-21.7,-84.11,6.65,-31.95,3.23,0.41,-0.02,1.0,1000
17:52:16.673,0.8,-21.97,-84.08,6.4,-29.7,1.83,0.39,0.02,0.99,1000
17:52:16.683,0.82,-22.19,-84.06,6.59,-27.56,2.68,0.39,0.02,0.99,1000
17:52:16.698,0.98,-22.27,-84.02,5.98,-26.04,4.15,0.37,0.03,0.96,1000
17:52:16.710,1.08,-22.33,-83.97,4.21,-23.72,5.55,0.38,0.01,0.95,1000
17:52:16.720,-0.15,-23.22,-83.91,2.38,-17.32,3.35,0.43,-0.13,0.92,1000
17:52:16.729,-1.69,-23.19,-83.9,6.04,-11.83,0.61,0.39,-0.12,1.01,1000
17:52:16.754,-2.45,-22.82,-83.88,13.11,-13.11,2.13,0.39,-0.08,1.02,1000
17:52:16.755,-2.3,-22.66,-83.83,21.65,-16.83,7.32,0.39,-0.01,1.0,1000
17:52:16.760,-1.47,-22.42,-83.71,23.84,-25.12,13.6,0.35,0.04,1.0,1000
17:52:16.771,-0.36,-22.1,-83.53,19.63,-31.46,17.56,0.37,0.05,0.96,1000
17:52:16.782,-0.14,-22.89,-83.35,-1.52,-39.02,15.73,0.35,-0.17,0.79,1000
17:52:16.793,-0.58,-23.13,-83.21,-5.37,-34.15,9.88,0.43,0.02,0.97,1000
17:52:16.806,-1.28,-23.79,-83.14,-16.16,-36.04,3.72,0.44,-0.0,1.05,1000
17:52:16.816,-1.74,-24.35,-83.13,-18.41,-35.73,-0.55,0.47,-0.06,0.99,1000
17:52:16.828,-2.08,-24.73,-83.15,-14.02,-33.9,-2.38,0.46,-0.04,1.02,1000
17:52:16.837,-2.18,-25.11,-83.17,-8.05,-30.61,-2.8,0.48,-0.04,0.99,1000
17:52:16.852,-2.31,-25.46,-83.21,-3.17,-26.22,-3.29,0.47,-0.04,0.99,1000
17:52:16.859,-2.37,-25.76,-83.25,-1.1,-21.65,-3.72,0.48,-0.04,0.98,1000
17:52:16.870,-2.37,-26.03,-83.29,-0.61,-17.74,-3.84,0.48,-0.04,0.98,1000
17:52:16.881,-2.46,-26.49,-83.33,-0.85,-15.98,-3.6,0.51,-0.06,0.97,1000
17:52:16.892,-2.8,-27.07,-83.37,-0.3,-14.02,-3.41,0.54,-0.07,0.97,1000
17:52:16.903,-3.1,-27.41,-83.41,1.71,-13.54,-2.56,0.52,-0.07,0.99,1000
17:52:16.929,-2.97,-27.55,-83.42,5.43,-13.23,0.43,0.51,-0.03,0.99,1000
17:52:16.930,-2.47,-27.59,-83.38,8.29,-13.17,5.67,0.5,-0.01,0.99,1000
17:52:16.938,-1.89,-27.48,-83.29,8.17,-12.87,10.24,0.48,0.01,0.98,1000
17:52:16.947,-1.32,-27.32,-83.16,4.7,-12.07,12.8,0.48,0.01,0.97,1000
17:52:16.965,-0.9,-27.31,-83.01,-0.79,-12.2,13.11,0.49,0.01,0.96,1000
17:52:16.972,-0.82,-27.42,-82.88,-6.71,-11.89,11.46,0.5,-0.01,0.96,1000
17:52:16.981,-1.04,-27.72,-82.77,-10.12,-10.98,8.17,0.53,-0.03,0.94,1000
17:52:16.996,-1.4,-27.95,-82.71,-9.82,-9.09,4.57,0.51,-0.06,0.98,1000
17:52:17.002,-1.71,-28.09,-82.68,-7.62,-6.83,0.61,0.52,-0.05,0.98,1000
17:52:17.027,-2.0,-27.97,-82.7,-3.17,-2.2,-2.74,0.5,-0.04,0.96,1000
17:52:17.034,-2.07,-27.83,-82.74,-0.3,0.85,-5.06,0.5,-0.04,0.99,1000
17:52:17.047,-2.08,-27.75,-82.81,0.37,3.17,-7.2,0.51,-0.04,0.95,1000
17:52:17.047,-2.34,-27.86,-82.91,-1.4,5.3,-9.94,0.52,-0.07,0.95,1000
17:52:17.058,-3.05,-27.99,-83.04,-3.05,6.52,-13.29,0.52,-0.1,0.96,1000
