Timestamp,Roll,Pitch,Yaw,Gyro_X,Gyro_Y,Gyro_Z,Accel_X,Accel_Y,Accel_Z,Throttle
17:42:10.045,-3.17,-5.87,36.61,-11.1,-5.18,-7.32,0.09,-0.07,1.02,1000
17:42:10.059,-3.52,-5.87,36.55,-10.79,-6.22,-4.88,0.11,-0.08,1.01,1000
17:42:10.068,-3.89,-6.05,36.51,-10.85,-6.28,-3.29,0.12,-0.09,1.02,1000
17:42:10.077,-4.2,-6.34,36.48,-10.85,-5.37,-1.65,0.14,-0.08,1.03,1000
17:42:10.088,-4.38,-6.66,36.47,-10.18,-3.66,0.24,0.14,-0.08,1.03,1000
17:42:10.102,-4.53,-6.9,36.49,-7.68,-1.83,2.13,0.14,-0.08,1.01,1000
17:42:10.112,-4.72,-7.04,36.51,-4.63,0.18,2.32,0.14,-0.1,1.02,1000
17:42:10.121,-4.83,-7.37,36.54,-2.32,2.01,1.71,0.17,-0.09,1.02,1000
17:42:10.132,-4.89,-7.78,36.56,0.61,3.48,1.34,0.17,-0.09,1.02,1000
17:42:10.143,-4.95,-8.15,36.56,2.93,4.09,0.06,0.17,-0.09,1.02,1000
17:42:10.157,-4.86,-8.3,36.56,6.1,3.54,-0.55,0.15,-0.08,1.03,1000
17:42:10.167,-4.7,-8.14,36.55,8.78,2.62,-0.37,0.14,-0.08,1.03,1000
17:42:10.176,-4.45,-7.97,36.55,11.28,1.04,-0.24,0.13,-0.07,1.03,1000
17:42:10.187,-4.17,-7.87,36.55,12.44,0.37,-0.61,0.14,-0.06,1.03,1000
17:42:10.214,-3.86,-7.87,36.53,12.44,-0.06,-1.77,0.14,-0.06,1.02,1000
17:42:10.215,-3.63,-7.94,36.5,10.91,-0.12,-3.66,0.15,-0.06,1.01,1000
17:42:10.221,-3.43,-8.06,36.45,8.96,-0.3,-5.85,0.15,-0.06,1.01,1000
17:42:10.231,-3.32,-8.16,36.37,7.01,-1.46,-8.11,0.15,-0.06,1.01,1000
17:42:10.247,-3.18,-8.25,36.27,4.82,-3.29,-10.06,0.15,-0.05,1.0,1000
17:42:10.254,-3.14,-8.28,36.15,3.29,-5.67,-10.73,0.14,-0.06,1.01,1000
17:42:10.264,-3.22,-8.17,36.04,2.5,-7.68,-10.3,0.13,-0.07,1.03,1000
17:42:10.276,-3.22,-8.04,35.93,2.01,-10.0,-9.27,0.13,-0.06,1.02,1000
17:42:10.286,-3.17,-7.94,35.83,2.5,-12.01,-8.11,0.12,-0.05,1.01,1000
17:42:10.307,-3.11,-7.69,35.75,3.78,-12.13,-7.26,0.11,-0.06,1.03,1000
17:42:10.316,-3.07,-7.74,35.68,5.67,-10.43,-6.95,0.15,-0.06,1.03,1000
17:42:10.320,-3.02,-8.12,35.59,7.32,-6.1,-8.29,0.17,-0.06,1.03,1000
17:42:10.330,-2.92,-8.25,35.49,6.65,-0.67,-10.12,0.15,-0.05,1.03,1000
17:42:10.343,-2.88,-8.17,35.37,5.55,3.72,-12.26,0.15,-0.06,1.05,1000
17:42:10.354,-2.97,-8.17,35.22,3.72,5.49,-15.0,0.16,-0.06,1.05,1000
17:42:10.368,-2.88,-8.08,35.03,1.28,4.45,-18.23,0.13,-0.04,1.04,1000
17:42:10.375,-2.74,-7.77,34.82,-1.52,2.62,-18.84,0.12,-0.04,1.01,1000
17:42:10.385,-2.56,-7.6,34.63,-3.78,0.67,-16.71,0.12,-0.03,1.01,1000
17:42:10.396,-2.48,-7.26,34.47,-3.96,1.77,-12.32,0.1,-0.04,1.01,1000
17:42:10.415,-2.51,-6.69,34.37,-2.99,4.27,-5.49,0.09,-0.06,1.02,1000
17:42:10.419,-2.7,-6.24,34.36,-2.32,7.32,2.38,0.1,-0.06,1.02,1000
17:42:10.430,-2.81,-6.35,34.44,-2.44,10.06,9.76,0.15,-0.05,1.01,1000
17:42:10.440,-2.94,-6.83,34.57,-4.63,11.34,12.87,0.16,-0.06,0.98,1000
17:42:10.451,-3.18,-7.34,34.72,-8.05,10.91,14.33,0.17,-0.06,0.99,1000
17:42:10.463,-3.46,-7.7,34.87,-9.51,8.6,13.54,0.15,-0.07,0.98,1000
17:42:10.473,-3.65,-7.95,35.01,-8.23,4.39,10.79,0.16,-0.06,0.99,1000
17:42:10.486,-3.65,-8.26,35.11,-4.7,-0.73,8.23,0.16,-0.05,0.98,1000
17:42:10.495,-3.31,-8.26,35.19,-0.3,-6.22,7.2,0.13,-0.02,0.99,1000
17:42:10.519,-2.79,-8.12,35.27,4.82,-10.12,7.32,0.13,-0.02,0.99,1000
17:42:10.522,-2.6,-8.01,35.35,10.18,-13.17,6.1,0.11,-0.05,1.02,1000
17:42:10.541,-2.49,-7.68,35.4,14.15,-13.29,3.48,0.1,-0.05,1.05,1000
17:42:10.541,-2.29,-7.53,35.43,15.73,-11.34,2.8,0.14,-0.04,1.05,1000
17:42:10.551,-2.15,-8.07,35.47,15.85,-4.76,3.48,0.2,-0.04,1.05,1000
17:42:10.566,-1.99,-8.7,35.51,16.46,2.38,3.9,0.21,-0.04,1.07,1000
17:42:10.574,-1.98,-9.3,35.55,16.71,10.3,3.48,0.24,-0.04,1.06,1000
17:42:10.583,-1.75,-9.77,35.57,15.85,15.49,0.67,0.2,-0.04,1.06,1000
17:42:10.597,-1.89,-9.18,35.56,16.22,19.63,-1.95,0.11,-0.07,1.08,1000
17:42:10.625,-1.95,-7.75,35.53,16.22,18.9,-3.78,0.03,-0.04,1.1,1000
17:42:10.625,-1.77,-5.95,35.49,15.43,15.85,-4.09,-0.0,-0.03,1.07,1000
17:42:10.629,-1.53,-4.87,35.45,13.84,10.79,-2.56,0.04,-0.02,1.04,1000
17:42:10.638,-1.14,-5.0,35.44,10.73,5.49,-0.61,0.14,0.0,1.0,1000
17:42:10.651,-0.78,-6.25,35.43,7.44,2.01,-0.67,0.21,-0.0,0.99,1000
17:42:10.664,-0.58,-7.88,35.42,5.55,0.67,-2.01,0.24,-0.01,1.0,1000
17:42:10.674,-0.54,-9.04,35.39,3.35,0.73,-1.71,0.25,-0.01,1.0,1000
17:42:10.682,-0.33,-9.75,35.4,1.1,0.55,1.83,0.18,0.01,1.0,1000
17:42:10.695,-0.31,-8.71,35.44,0.37,-1.22,6.28,0.03,-0.02,1.02,1000
17:42:10.706,-0.53,-6.69,35.54,0.0,-5.43,10.24,-0.04,-0.03,1.02,1000
17:42:10.728,-0.86,-4.81,35.65,-2.26,-12.44,9.09,-0.05,-0.04,1.01,1000
17:42:10.728,-1.3,-3.51,35.73,-5.98,-20.0,4.63,-0.02,-0.05,1.01,1000
17:42:10.739,-1.58,-3.68,35.75,-7.93,-26.1,-0.12,0.12,-0.04,1.02,1000
17:42:10.751,-1.62,-5.47,35.72,-6.46,-29.21,-4.09,0.23,-0.02,1.0,1000
17:42:10.761,-1.3,-7.83,35.66,-2.44,-26.28,-6.4,0.27,0.01,0.97,1000
17:42:10.770,-0.98,-9.28,35.59,-0.49,-19.76,-7.07,0.25,0.01,0.96,1000
17:42:10.783,-0.62,-10.02,35.51,0.91,-11.83,-6.4,0.17,0.01,0.96,1000
17:42:10.793,-0.39,-9.72,35.47,2.5,-5.55,-1.83,0.1,0.0,0.99,1000
17:42:10.805,-0.22,-8.1,35.49,5.37,-2.56,5.3,0.02,-0.0,1.02,1000
17:42:10.824,-0.29,-6.42,35.58,7.07,-0.18,9.57,0.04,-0.02,1.02,1000
17:42:10.831,-0.31,-6.59,35.68,6.16,0.0,7.99,0.18,-0.01,0.99,1000
17:42:10.839,-0.19,-8.02,35.73,4.45,-0.43,2.01,0.26,-0.0,0.99,1000
17:42:10.849,0.06,-9.16,35.72,5.79,-2.74,-3.05,0.21,0.02,0.99,1000
17:42:10.861,0.16,-9.52,35.68,10.0,-4.39,-3.72,0.18,-0.01,1.01,1000
17:42:10.880,0.12,-9.2,35.65,13.54,-5.43,-2.62,0.09,-0.02,1.06,1000
17:42:10.881,0.04,-7.77,35.62,14.51,-2.13,-1.34,0.03,-0.03,1.06,1000
17:42:10.891,-0.06,-7.11,35.61,9.09,3.11,-0.98,0.11,-0.0,1.03,1000
17:42:10.904,0.07,-6.79,35.59,1.71,7.13,-3.78,0.11,0.0,1.02,1000
17:42:10.931,0.12,-6.73,35.53,-3.66,7.01,-6.65,0.14,0.0,1.02,1000
17:42:10.931,0.36,-7.78,35.44,-4.88,5.43,-9.39,0.26,0.03,0.99,1000
17:42:10.935,0.56,-9.36,35.31,-3.54,3.05,-13.05,0.3,0.03,1.01,1000
17:42:10.948,0.86,-10.55,35.15,1.46,0.49,-14.94,0.2,0.03,0.99,1000
17:42:10.959,0.78,-9.99,35.0,7.56,1.46,-13.41,0.12,-0.01,1.03,1000
17:42:10.968,0.46,-9.54,34.87,11.22,1.34,-10.49,0.15,-0.03,1.03,1000
17:42:10.981,0.35,-9.12,34.77,16.34,0.37,-7.2,0.12,-0.02,1.03,1000
17:42:10.990,0.08,-8.31,34.72,18.9,-1.46,-2.87,0.1,-0.02,1.03,1000
17:42:11.001,0.14,-8.31,34.71,18.84,-5.55,1.22,0.17,0.0,1.01,1000
17:42:11.024,0.36,-9.07,34.74,14.57,-7.74,2.44,0.21,0.01,1.01,1000
17:42:11.033,0.55,-9.72,34.76,14.76,-7.68,2.38,0.2,0.02,1.05,1000
17:42:11.034,0.72,-9.4,34.79,16.46,-3.66,3.05,0.12,-0.02,1.02,1000
17:42:11.045,0.82,-8.54,34.84,20.79,4.51,5.61,0.13,0.03,1.06,1000
17:42:11.056,1.11,-7.88,34.91,18.05,9.39,6.04,0.05,0.02,1.04,1000
17:42:11.067,1.39,-6.48,34.96,11.59,13.41,1.95,0.06,0.03,0.98,1000
17:42:11.078,1.75,-6.42,34.92,3.17,11.4,-7.68,0.16,0.05,0.98,1000
17:42:11.091,2.04,-7.25,34.77,-2.93,6.59,-19.45,0.18,0.05,0.97,1000
17:42:11.100,2.23,-7.97,34.5,-4.33,3.29,-27.62,0.2,0.06,1.03,1000
17:42:11.111,2.52,-8.8,34.19,-3.66,3.6,-27.38,0.23,0.06,1.04,1000
17:42:11.132,2.54,-9.61,33.92,-3.17,11.04,-22.44,0.26,0.04,1.09,1000
17:42:11.136,2.25,-10.7,33.7,-10.18,24.82,-18.6,0.31,0.04,1.1,1000
17:42:11.144,2.03,-11.49,33.5,-22.8,41.28,-15.67,0.29,0.03,1.09,1000
17:42:11.156,1.88,-11.55,33.37,-37.93,55.85,-9.27,0.23,0.06,1.06,1000
17:42:11.179,1.6,-10.3,33.31,-54.21,64.02,-1.4,0.1,0.03,1.08,1000
17:42:11.179,0.76,-8.02,33.35,-68.96,64.21,5.91,0.01,-0.01,1.06,1000
17:42:11.188,-0.14,-5.55,33.44,-85.43,55.98,9.94,-0.03,-0.0,1.0,1000
17:42:11.199,-1.04,-3.3,33.55,-99.45,43.72,8.17,-0.01,0.03,0.98,1000
17:42:11.211,-1.7,-2.58,33.62,-106.22,25.91,5.3,0.06,0.01,0.98,1000
17:42:11.231,-2.46,-2.71,33.65,-100.49,8.11,1.4,0.08,-0.03,1.02,1000
17:42:11.245,-3.25,-3.05,33.64,-82.74,-6.28,-2.99,0.1,-0.05,1.09,1000
17:42:11.245,-4.0,-3.56,33.59,-60.18,-15.12,-6.59,0.09,-0.11,1.12,1000
17:42:11.254,-5.06,-3.64,33.47,-32.62,-17.8,-12.32,0.03,-0.14,1.1,1000
17:42:11.267,-5.62,-3.37,33.28,-11.59,-16.59,-21.04,0.05,-0.11,1.1,1000
17:42:11.294,-5.56,-3.91,33.03,2.01,-12.07,-24.33,0.11,-0.11,1.07,1000
17:42:11.294,-5.56,-4.79,32.76,12.26,-4.39,-23.35,0.17,-0.1,1.04,1000
17:42:11.300,-5.39,-6.05,32.52,20.85,6.1,-21.16,0.22,-0.13,1.04,1000
17:42:11.309,-5.52,-7.55,32.3,27.68,16.95,-19.21,0.22,-0.24,1.01,1000
17:42:11.320,-6.43,-8.22,32.09,31.89,29.51,-20.67,0.2,-0.13,1.05,1000
17:42:11.336,-6.08,-8.43,31.83,38.23,41.65,-25.37,0.2,-0.08,1.03,1000
17:42:11.342,-6.17,-8.2,31.52,43.84,47.56,-32.13,0.12,-0.17,1.06,1000
17:42:11.353,-6.13,-7.25,31.11,50.67,49.7,-40.49,0.09,-0.14,1.03,1000
17:42:11.365,-5.92,-6.36,30.64,54.21,47.01,-42.32,0.11,-0.12,1.07,1000
17:42:11.376,-5.85,-5.76,30.19,56.22,40.98,-40.18,0.09,-0.14,1.0,1000
17:42:11.403,-5.35,-5.49,29.77,55.37,32.93,-37.87,0.12,-0.08,1.02,1000
17:42:11.403,-4.53,-5.37,29.36,50.0,26.71,-36.89,0.1,-0.05,0.99,1000
17:42:11.414,-3.57,-5.48,28.94,42.5,23.6,-38.29,0.14,-0.01,1.0,1000
17:42:11.421,-2.48,-6.23,28.51,33.29,22.99,-39.94,0.18,-0.02,0.98,1000
17:42:11.439,-2.83,-6.28,28.04,26.34,23.17,-46.59,0.07,-0.13,0.93,1000
17:42:11.444,-3.89,-4.94,27.46,19.09,22.13,-58.35,0.01,-0.12,1.02,1000
17:42:11.453,-3.99,-4.05,26.75,10.55,18.6,-68.6,0.03,-0.09,1.02,1000
17:42:11.464,-4.45,-3.2,25.94,5.18,12.93,-76.52,0.0,-0.1,1.03,1000
17:42:11.474,-3.81,-2.75,25.07,4.02,5.91,-80.37,0.05,0.02,1.02,1000
17:42:11.485,-2.57,-3.06,24.27,5.37,0.12,-79.39,0.09,0.05,1.01,1000
17:42:11.498,-1.41,-3.78,23.34,10.79,-4.02,-76.59,0.1,0.04,0.97,1000
17:42:11.507,0.05,-4.52,22.51,13.78,-4.76,-74.33,0.13,0.11,1.02,1000
17:42:11.521,1.25,-5.57,21.7,16.65,-1.65,-73.29,0.13,0.03,0.93,1000
17:42:11.549,0.96,-5.11,20.87,17.56,3.66,-79.09,0.02,-0.03,0.97,1000
17:42:11.550,1.01,-4.13,19.95,17.32,8.29,-86.95,-0.01,0.0,0.93,1000
17:42:11.558,0.3,-2.65,18.94,12.8,10.43,-94.45,-0.05,-0.05,1.05,1000
17:42:11.562,0.52,-1.87,17.98,4.94,8.05,-95.79,-0.01,0.04,0.96,1000
17:42:11.573,1.42,-1.81,16.87,0.3,0.61,-90.12,0.03,0.04,0.97,1000
17:42:11.589,1.44,-1.95,15.92,-2.13,-10.24,-82.99,0.04,0.03,0.95,1000
17:42:11.596,1.96,-2.14,15.04,-5.12,-20.55,-77.2,0.03,0.08,0.98,1000
17:42:11.607,2.36,-2.38,14.22,-8.78,-26.71,-74.45,0.03,0.05,0.93,1000
17:42:11.618,2.18,-2.31,13.39,-12.62,-28.72,-76.28,0.0,0.03,0.97,1000
17:42:11.635,2.04,-2.18,12.53,-16.65,-25.73,-79.94,0.01,0.02,0.95,1000
17:42:11.644,0.85,-1.31,11.61,-20.91,-19.7,-87.44,-0.08,-0.06,0.99,1000
17:42:11.658,0.13,-0.39,10.6,-26.22,-12.26,-94.21,-0.04,0.03,1.01,1000
17:42:11.666,0.29,-0.27,9.56,-31.16,-6.52,-93.66,0.01,0.02,1.04,1000
17:42:11.672,-0.11,-0.45,8.56,-31.04,-4.94,-88.17,0.02,-0.01,1.0,1000
17:42:11.683,-0.43,-0.84,7.63,-27.5,-7.44,-81.16,0.04,-0.01,1.04,1000
17:42:11.699,-0.97,-1.11,6.79,-23.41,-10.43,-74.15,0.03,-0.05,1.02,1000
17:42:11.708,-1.36,-1.06,6.0,-19.33,-11.83,-70.98,0.0,-0.02,1.04,1000
17:42:11.719,-1.74,-0.69,5.22,-16.04,-11.1,-71.34,-0.03,-0.05,1.03,1000
17:42:11.727,-2.26,-0.18,4.42,-13.84,-8.35,-73.6,-0.04,-0.07,1.05,1000
17:42:11.738,-2.99,1.03,3.59,-12.5,-6.16,-76.59,-0.13,-0.11,1.06,1000
17:42:11.750,-3.78,2.54,2.73,-10.55,-5.0,-78.05,-0.14,-0.08,1.08,1000
17:42:11.762,-3.64,3.23,1.91,-10.49,-5.85,-71.71,-0.09,-0.04,1.1,1000
17:42:11.773,-3.33,3.18,1.2,-9.15,-8.29,-57.87,-0.03,-0.04,1.08,1000
17:42:11.782,-3.43,2.41,0.67,-5.55,-9.7,-40.18,0.02,-0.08,1.07,1000
17:42:11.794,-3.86,1.44,0.32,-2.8,-7.56,-25.73,0.04,-0.09,1.06,1000
17:42:11.805,-3.84,0.77,0.11,-2.87,-1.1,-15.98,0.03,-0.06,1.07,1000
17:42:11.816,-3.62,0.56,-0.04,-4.88,8.17,-12.93,-0.0,-0.05,1.05,1000
17:42:11.827,-3.47,0.93,-0.19,-6.28,19.76,-14.88,-0.03,-0.05,1.05,1000
17:42:11.881,-3.36,1.91,-0.39,-6.83,29.02,-20.49,-0.11,-0.04,1.05,1000
17:42:11.881,-2.86,3.32,-0.65,-7.68,33.17,-25.98,-0.11,-0.0,1.07,1000
17:42:11.881,-2.19,4.0,-0.94,-6.89,31.52,-25.3,-0.08,0.01,1.06,1000
17:42:11.881,-2.24,4.11,-1.18,-3.29,25.06,-19.94,-0.04,-0.06,1.05,1000
17:42:11.883,-2.55,3.47,-1.35,1.46,15.0,-11.28,0.01,-0.06,1.06,1000
17:42:11.893,-2.61,2.83,-1.43,5.55,5.91,-4.76,0.0,-0.05,1.04,1000
17:42:11.903,-2.79,2.35,-1.47,8.78,0.37,-3.35,-0.02,-0.07,1.02,1000
17:42:11.916,-2.72,2.21,-1.52,8.6,-1.16,-6.71,-0.03,-0.03,1.04,1000
17:42:11.927,-2.35,2.14,-1.62,5.85,0.3,-11.65,-0.03,-0.03,1.03,1000
17:42:11.952,-2.2,2.17,-1.79,2.44,4.21,-18.6,-0.04,-0.03,1.03,1000
17:42:11.952,-1.83,2.36,-2.04,-0.73,7.2,-24.33,-0.04,0.0,1.02,1000
17:42:11.958,-1.55,2.3,-2.33,-2.68,8.72,-27.13,-0.01,-0.02,1.01,1000
17:42:11.972,-1.67,1.98,-2.6,-2.87,8.05,-26.83,-0.01,-0.04,1.0,1000
17:42:11.993,-1.78,1.69,-2.91,-2.5,5.91,-24.94,-0.0,-0.03,1.02,1000
17:42:11.997,-1.76,1.42,-3.15,-2.2,4.51,-22.68,-0.0,-0.03,1.01,1000
17:42:12.005,-1.72,1.15,-3.41,-2.07,4.45,-20.91,0.0,-0.03,1.01,1000
17:42:12.014,-1.57,0.87,-3.63,-3.41,5.85,-20.61,-0.0,-0.01,1.01,1000
17:42:12.024,-1.48,1.29,-3.87,-4.7,7.99,-23.17,-0.08,-0.02,1.01,1000
17:42:12.036,-1.23,2.21,-4.15,-7.01,9.51,-26.83,-0.08,-0.0,1.04,1000
17:42:12.059,-1.17,2.79,-4.45,-9.88,9.09,-27.13,-0.08,-0.02,1.03,1000
17:42:12.065,-1.33,3.07,-4.74,-10.43,7.56,-24.21,-0.05,-0.02,1.03,1000
17:42:12.071,-1.41,2.91,-4.96,-9.63,4.57,-17.68,-0.02,-0.04,1.05,1000
17:42:12.079,-2.0,2.58,-5.11,-6.95,1.4,-11.22,-0.03,-0.07,1.03,1000
17:42:12.091,-2.29,2.27,-5.21,-4.09,-1.22,-6.71,-0.01,-0.04,1.05,1000
17:42:12.111,-2.19,2.0,-5.26,-1.95,-2.87,-4.63,-0.03,-0.04,1.04,1000
17:42:12.119,-2.2,2.06,-5.32,-1.1,-2.56,-6.04,-0.05,-0.03,1.05,1000
17:42:12.123,-1.89,2.19,-5.41,-1.95,-1.04,-9.63,-0.05,-0.02,1.05,1000
17:42:12.134,-1.87,2.33,-5.54,-3.23,0.61,-13.54,-0.05,-0.04,1.04,1000
17:42:12.161,-1.8,2.3,-5.71,-3.72,1.95,-16.89,-0.02,-0.02,1.04,1000
17:42:12.161,-1.75,1.95,-5.9,-4.33,2.38,-17.87,-0.0,-0.04,1.03,1000
17:42:12.172,-2.03,1.59,-6.1,-3.9,2.01,-18.23,0.0,-0.05,1.03,1000
17:42:12.183,-2.12,1.33,-6.3,-3.9,2.01,-18.96,-0.01,-0.03,1.04,1000
17:42:12.193,-2.15,1.31,-6.52,-4.82,2.44,-20.79,-0.02,-0.04,1.04,1000
17:42:12.213,-2.16,1.38,-6.76,-5.49,3.29,-23.05,-0.03,-0.04,1.05,1000
17:42:12.213,-2.23,1.46,-7.03,-5.61,3.6,-24.88,-0.03,-0.05,1.05,1000
17:42:12.241,-2.52,1.69,-7.31,-4.63,3.35,-26.28,-0.05,-0.06,1.05,1000
17:42:12.241,-2.66,1.87,-7.6,-2.44,2.13,-25.61,-0.05,-0.05,1.05,1000
17:42:12.260,-2.74,2.1,-7.85,-1.22,0.12,-24.21,-0.06,-0.06,1.06,1000
17:42:12.262,-2.8,2.22,-8.12,1.4,-2.62,-20.49,-0.04,-0.05,1.05,1000
17:42:12.284,-2.96,2.18,-8.32,4.27,-5.06,-16.71,-0.05,-0.08,1.04,1000
17:42:12.284,-3.2,2.23,-8.48,6.89,-6.95,-13.35,-0.05,-0.07,1.03,1000
17:42:12.291,-3.21,2.44,-8.61,9.09,-8.84,-10.85,-0.07,-0.06,1.03,1000
17:42:12.312,-3.21,2.75,-8.72,8.72,-9.82,-9.09,-0.07,-0.07,1.04,1000
17:42:12.312,-3.03,2.62,-8.8,7.26,-10.12,-5.91,-0.02,-0.04,1.03,1000
17:42:12.324,-2.99,2.09,-8.84,5.79,-8.96,-1.59,0.0,-0.06,1.02,1000
17:42:12.332,-3.18,1.42,-8.84,4.63,-7.44,1.52,0.02,-0.07,1.0,1000
17:42:12.343,-3.24,0.81,-8.81,3.05,-5.61,3.35,0.02,-0.06,1.01,1000
17:42:12.359,-3.16,0.27,-8.77,1.22,-4.15,3.41,0.02,-0.05,1.0,1000
17:42:12.367,-2.99,-0.15,-8.73,-0.98,-2.13,2.2,0.03,-0.04,1.01,1000
17:42:12.378,-2.92,-0.56,-8.73,-2.87,-0.3,-0.43,0.04,-0.05,1.0,1000
17:42:12.389,-3.24,-0.8,-8.75,-3.41,1.4,-4.15,0.02,-0.08,1.0,1000
17:42:12.398,-3.38,-0.77,-8.83,-4.09,2.32,-8.84,0.0,-0.06,1.01,1000
17:42:12.414,-3.39,-0.43,-8.95,-5.3,1.71,-13.54,-0.02,-0.06,1.01,1000
17:42:12.421,-3.24,-0.06,-9.12,-6.22,-0.67,-16.95,-0.02,-0.03,1.01,1000
17:42:12.432,-3.08,-0.05,-9.31,-7.2,-4.15,-16.65,0.0,-0.05,1.03,1000
17:42:12.442,-3.11,-0.16,-9.48,-7.32,-8.05,-13.78,0.0,-0.05,1.03,1000
17:42:12.461,-3.2,-0.43,-9.61,-6.89,-11.22,-10.18,0.02,-0.06,1.04,1000
17:42:12.467,-3.35,-0.76,-9.69,-5.98,-12.62,-6.65,0.02,-0.07,1.03,1000
17:42:12.477,-3.45,-0.87,-9.75,-5.12,-12.62,-3.9,0.01,-0.06,1.04,1000
17:42:12.498,-3.31,-0.97,-9.78,-5.18,-11.52,-1.83,0.02,-0.05,1.04,1000
17:42:12.498,-3.4,-1.06,-9.79,-5.12,-8.66,-0.06,0.01,-0.08,1.03,1000
17:42:12.508,-3.45,-0.81,-9.79,-4.76,-6.95,0.43,-0.02,-0.05,1.03,1000
17:42:12.519,-3.2,-0.45,-9.78,-3.96,-5.67,1.59,-0.01,-0.03,1.04,1000
17:42:12.530,-3.17,-0.49,-9.75,-3.54,-5.3,4.7,0.02,-0.07,1.05,1000
17:42:12.543,-3.38,-0.91,-9.67,-2.5,-5.12,9.27,0.05,-0.08,1.04,1000
17:42:12.573,-3.58,-1.31,-9.54,-1.52,-4.88,13.11,0.04,-0.07,1.05,1000
17:42:12.573,-3.59,-1.54,-9.39,-1.04,-4.33,14.45,0.03,-0.06,1.04,1000
17:42:12.583,-3.54,-1.57,-9.23,-0.12,-3.66,13.11,0.02,-0.05,1.03,1000
17:42:12.586,-3.39,-1.41,-9.11,0.18,-3.29,9.7,0.01,-0.05,1.05,1000
17:42:12.596,-3.16,-1.3,-9.02,-0.18,-3.17,6.22,0.02,-0.05,1.04,1000
17:42:12.607,-3.11,-1.44,-8.98,-0.61,-3.11,3.17,0.04,-0.06,1.04,1000
17:42:12.728,-3.08,-1.67,-8.95,-0.18,-3.35,0.98,0.04,-0.05,1.03,1000
17:42:12.728,-3.05,-1.84,-8.96,1.04,-3.05,-1.4,0.03,-0.06,1.03,1000
17:42:12.728,-3.07,-1.68,-8.99,1.59,-2.62,-4.94,0.01,-0.05,1.04,1000
17:42:12.728,-2.78,-1.65,-9.06,1.28,-1.52,-6.95,0.04,-0.03,1.05,1000
17:42:12.728,-2.75,-1.87,-9.14,0.3,0.91,-7.74,0.05,-0.06,1.05,1000
17:42:12.728,-2.76,-2.04,-9.23,0.73,3.11,-8.35,0.05,-0.05,1.04,1000
17:42:12.728,-2.71,-2.18,-9.32,1.34,5.18,-8.11,0.05,-0.05,1.05,1000
17:42:12.728,-2.68,-2.32,-9.41,2.2,6.52,-7.93,0.05,-0.05,1.04,1000
17:42:12.728,-2.62,-2.34,-9.5,3.84,7.2,-8.17,0.04,-0.04,1.03,1000
17:42:12.728,-2.49,-2.03,-9.6,5.55,7.13,-9.39,0.0,-0.04,1.03,1000
17:42:12.729,-2.27,-1.37,-9.71,6.65,5.91,-11.1,-0.02,-0.03,1.03,1000
17:42:12.739,-2.15,-0.8,-9.84,6.65,3.29,-11.22,-0.02,-0.04,1.04,1000
17:42:12.798,-1.94,-0.51,-9.95,6.4,-0.55,-9.09,-0.0,-0.03,1.04,1000
17:42:12.798,-1.95,-0.58,-10.02,6.77,-4.51,-4.76,0.02,-0.06,1.03,1000
17:42:12.798,-2.18,-0.95,-10.04,7.07,-6.83,-0.06,0.04,-0.06,1.03,1000
17:42:12.798,-2.32,-1.24,-10.02,7.44,-7.2,2.68,0.03,-0.06,1.02,1000
17:42:12.798,-2.37,-1.13,-9.99,6.59,-6.4,2.44,0.0,-0.04,1.03,1000
17:42:12.805,-2.05,-1.06,-9.97,6.04,-5.0,1.34,0.02,-0.02,1.02,1000
17:42:12.817,-2.0,-1.18,-9.96,4.88,-2.8,0.06,0.02,-0.05,1.02,1000
17:42:12.940,-1.98,-1.03,-9.97,3.9,-1.28,-1.89,0.01,-0.02,1.02,1000
17:42:12.940,-1.68,-1.12,-10.0,3.23,-0.73,-2.5,0.03,-0.02,1.03,1000
17:42:12.940,-1.83,-1.5,-10.02,2.87,-0.61,-1.28,0.05,-0.06,1.01,1000
17:42:12.940,-2.04,-1.69,-10.03,3.54,-0.49,-1.16,0.03,-0.05,1.02,1000
17:42:12.940,-2.02,-1.72,-10.05,3.05,-0.37,-1.46,0.04,-0.04,1.03,1000
17:42:12.940,-2.11,-1.94,-10.06,2.38,0.3,-1.65,0.05,-0.05,1.02,1000
17:42:12.940,-2.09,-2.14,-10.08,2.07,0.49,-2.01,0.05,-0.03,1.02,1000
17:42:12.940,-1.96,-2.29,-10.11,1.71,1.34,-2.93,0.05,-0.04,1.02,1000
17:42:12.940,-2.09,-2.29,-10.15,0.67,2.07,-4.33,0.04,-0.04,1.02,1000
17:42:12.940,-2.03,-2.22,-10.21,-0.24,2.68,-5.91,0.03,-0.03,1.01,1000
17:42:12.940,-1.85,-1.91,-10.28,-1.34,1.83,-7.62,0.02,-0.02,1.03,1000
17:42:12.948,-1.76,-1.75,-10.37,-1.04,-0.37,-8.11,0.02,-0.02,1.01,1000
17:42:12.971,-1.51,-1.7,-10.46,-0.43,-2.13,-7.2,0.03,-0.01,1.03,1000
17:42:12.975,-1.47,-1.77,-10.53,-0.61,-2.99,-5.85,0.03,-0.03,1.02,1000
17:42:12.981,-1.44,-1.86,-10.59,0.24,-2.93,-4.33,0.04,-0.02,1.02,1000
17:42:12.993,-1.44,-1.94,-10.63,0.37,-1.65,-3.48,0.04,-0.04,1.02,1000
17:42:13.003,-1.51,-1.92,-10.66,-0.24,0.12,-3.29,0.03,-0.03,1.02,1000
17:42:13.014,-1.48,-1.94,-10.7,-1.1,2.2,-2.99,0.04,-0.03,1.02,1000
17:42:13.078,-1.49,-1.92,-10.74,-2.38,3.9,-3.54,0.03,-0.02,1.02,1000
17:42:13.079,-1.46,-1.73,-10.78,-2.68,4.21,-4.51,0.01,-0.02,1.01,1000
17:42:13.079,-1.44,-1.23,-10.84,-3.11,4.02,-5.61,-0.01,-0.03,1.03,1000
17:42:13.079,-1.28,-0.85,-10.9,-4.7,2.38,-5.79,0.0,-0.01,1.03,1000
17:42:13.082,-1.31,-0.82,-10.96,-4.39,1.04,-4.57,0.02,-0.03,1.03,1000
17:42:13.173,-1.48,-0.87,-11.0,-3.84,-0.55,-3.11,0.02,-0.03,1.03,1000
17:42:13.173,-1.49,-0.93,-11.03,-3.29,-1.16,-2.01,0.02,-0.03,1.03,1000
17:42:13.173,-1.5,-0.94,-11.05,-2.38,-0.18,-1.83,0.02,-0.02,1.02,1000
17:42:13.173,-1.49,-0.93,-11.07,-1.4,1.89,-2.56,0.01,-0.02,1.01,1000
17:42:13.173,-1.39,-0.7,-11.11,-1.83,5.0,-4.02,-0.0,-0.01,1.02,1000
17:42:13.173,-1.18,-0.43,-11.16,-3.11,9.39,-4.94,-0.0,-0.02,1.02,1000
17:42:13.173,-1.24,-0.14,-11.22,-3.66,13.9,-5.12,-0.01,-0.02,1.02,1000
17:42:13.173,-1.16,0.25,-11.27,-4.09,16.4,-4.45,-0.02,-0.02,1.03,1000
17:42:13.218,-1.48,0.45,-11.3,-4.02,17.62,-2.32,0.0,-0.07,1.03,1000
17:42:13.218,-1.96,0.52,-11.31,-4.15,17.13,0.79,0.0,-0.07,1.04,1000
17:42:13.218,-2.38,0.55,-11.28,-4.88,14.88,3.96,-0.01,-0.07,1.04,1000
17:42:13.218,-2.79,0.83,-11.23,-5.61,11.4,5.49,-0.03,-0.07,1.03,1000
17:42:13.221,-2.96,1.4,-11.16,-5.91,6.4,5.37,-0.06,-0.05,1.03,1000
17:42:13.227,-2.95,1.82,-11.11,-6.34,1.1,5.18,-0.05,-0.05,1.04,1000
17:42:13.234,-2.97,1.85,-11.04,-7.62,-3.84,5.98,-0.02,-0.05,1.05,1000
17:42:13.279,-3.03,1.53,-10.97,-7.62,-6.65,7.87,-0.0,-0.06,1.03,1000
17:42:13.279,-3.28,1.08,-10.87,-7.07,-7.01,8.72,0.0,-0.07,1.04,1000
17:42:13.306,-3.46,0.86,-10.78,-5.91,-5.55,7.99,-0.01,-0.06,1.03,1000
17:42:13.306,-3.34,0.74,-10.71,-4.76,-2.99,5.85,-0.0,-0.04,1.05,1000
17:42:13.306,-3.29,0.48,-10.65,-3.66,-0.67,4.76,0.01,-0.06,1.04,1000
17:42:13.306,-3.28,0.15,-10.61,-1.89,1.52,3.48,0.02,-0.05,1.04,1000
17:42:13.319,-3.22,0.03,-10.58,-0.37,2.68,2.07,0.01,-0.05,1.03,1000
17:42:13.332,-3.18,0.05,-10.56,1.77,2.5,0.3,-0.01,-0.06,1.03,1000
17:42:13.357,-3.17,0.24,-10.57,2.8,1.34,-1.22,-0.02,-0.06,1.04,1000
17:42:13.357,-2.99,0.26,-10.59,2.74,-0.43,-1.28,0.0,-0.04,1.04,1000
17:42:13.357,-2.88,0.03,-10.59,2.44,-2.13,0.79,0.02,-0.05,1.03,1000
17:42:13.424,-2.88,-0.27,-10.57,2.26,-2.74,2.8,0.03,-0.06,1.03,1000
17:42:13.425,-2.87,-0.49,-10.53,1.95,-2.44,3.72,0.01,-0.05,1.02,1000
17:42:13.425,-2.71,-0.45,-10.49,0.79,-1.71,3.23,-0.0,-0.04,1.03,1000
17:42:13.425,-2.53,-0.23,-10.46,-0.37,-1.4,1.95,-0.01,-0.03,1.02,1000
17:42:13.429,-2.42,-0.16,-10.44,-1.77,-1.77,1.34,0.01,-0.04,1.03,1000
17:42:13.429,-2.48,-0.42,-10.42,-3.11,-2.2,2.38,0.02,-0.06,1.03,1000
17:42:13.434,-2.53,-0.59,-10.39,-3.29,-2.44,3.54,0.02,-0.04,1.03,1000
17:42:13.443,-2.64,-0.79,-10.34,-2.56,-2.32,3.84,0.02,-0.05,1.03,1000
17:42:13.456,-2.73,-0.84,-10.31,-1.52,-1.59,2.74,0.01,-0.05,1.03,1000
17:42:13.501,-2.74,-0.74,-10.29,-0.79,-0.91,1.04,0.0,-0.05,1.03,1000
17:42:13.501,-2.62,-0.64,-10.28,-0.06,-0.37,-0.3,0.01,-0.04,1.03,1000
17:42:13.501,-2.56,-0.64,-10.29,1.1,-0.18,-1.16,0.01,-0.05,1.03,1000
17:42:13.501,-2.74,-0.54,-10.31,1.59,-0.43,-1.83,-0.0,-0.06,1.04,1000
17:42:13.509,-2.83,-0.35,-10.33,2.07,-0.67,-2.32,-0.02,-0.05,1.03,1000
17:42:13.528,-2.9,-0.07,-10.36,1.4,-1.16,-2.38,-0.01,-0.06,1.05,1000
17:42:13.552,-2.95,-0.03,-10.38,0.85,-2.2,-1.4,-0.0,-0.06,1.03,1000
17:42:13.552,-2.94,-0.06,-10.38,0.98,-3.17,0.61,0.0,-0.05,1.04,1000
17:42:13.553,-2.94,-0.14,-10.37,0.79,-3.29,2.07,0.01,-0.05,1.03,1000
17:42:13.607,-2.95,-0.21,-10.33,0.79,-2.01,2.8,0.0,-0.05,1.03,1000
17:42:13.607,-2.98,-0.02,-10.31,0.3,-0.79,1.95,-0.02,-0.05,1.02,1000
17:42:13.607,-2.77,0.29,-10.29,-0.37,-0.37,1.04,-0.02,-0.04,1.04,1000
17:42:13.607,-2.72,0.27,-10.28,-0.49,-1.22,1.4,0.01,-0.05,1.03,1000
17:42:13.609,-2.82,0.09,-10.26,0.37,-1.89,2.8,0.01,-0.06,1.03,1000
17:42:13.620,-2.87,0.12,-10.22,0.85,-2.74,2.99,-0.01,-0.05,1.03,1000
17:42:13.635,-2.82,0.13,-10.19,1.34,-3.35,3.35,0.01,-0.05,1.03,1000
17:42:13.746,-2.84,-0.08,-10.15,1.16,-3.41,3.84,0.02,-0.06,1.03,1000
17:42:13.746,-2.9,-0.39,-10.1,1.77,-3.29,4.39,0.02,-0.06,1.02,1000
17:42:13.746,-2.88,-0.57,-10.06,2.2,-3.17,3.96,0.02,-0.05,1.02,1000
17:42:13.746,-2.82,-0.61,-10.02,2.13,-3.72,2.99,0.01,-0.05,1.02,1000
17:42:13.746,-2.85,-0.73,-9.99,1.65,-4.15,1.95,0.02,-0.05,1.02,1000
17:42:13.746,-2.67,-0.85,-9.97,0.98,-4.82,1.34,0.02,-0.04,1.03,1000
17:42:13.746,-2.56,-0.94,-9.97,0.85,-5.18,0.49,0.02,-0.04,1.01,1000
17:42:13.747,-2.5,-0.91,-9.97,1.52,-5.24,-0.79,0.0,-0.05,1.01,1000
17:42:13.747,-2.5,-0.63,-9.99,1.65,-5.24,-2.62,-0.01,-0.04,1.02,1000
17:42:13.747,-2.39,-0.68,-10.02,0.85,-5.24,-2.32,0.03,-0.04,1.03,1000
17:42:13.754,-2.43,-1.01,-10.03,0.24,-4.63,-0.24,0.05,-0.05,1.02,1000
17:42:13.834,-2.47,-1.42,-10.02,0.06,-3.54,2.01,0.05,-0.04,1.01,1000
17:42:13.834,-2.37,-1.69,-9.99,-0.43,-1.4,2.32,0.04,-0.04,1.02,1000
17:42:13.834,-2.44,-1.76,-9.97,-0.67,1.52,0.98,0.02,-0.06,1.01,1000
17:42:13.834,-2.41,-1.25,-9.98,-0.98,3.17,-2.56,-0.02,-0.02,1.03,1000
17:42:13.834,-2.1,-0.9,-10.03,-1.65,2.99,-4.94,0.01,-0.02,1.02,1000
17:42:13.834,-2.25,-0.96,-10.08,-2.07,1.83,-4.39,0.03,-0.06,1.03,1000
17:42:13.834,-2.38,-1.02,-10.12,-1.65,0.18,-2.93,0.02,-0.04,1.01,1000
17:42:13.965,-2.34,-1.09,-10.15,-1.77,-1.16,-1.46,0.03,-0.04,1.03,1000
17:42:14.000,-2.48,-1.16,-10.15,-2.07,-0.79,-0.24,0.02,-0.05,1.01,1000
17:42:14.000,-2.43,-1.15,-10.15,-2.62,1.16,-0.06,0.02,-0.04,1.03,1000
17:42:14.000,-2.43,-0.78,-10.16,-3.41,3.05,-2.01,-0.02,-0.04,1.02,1000
17:42:14.000,-2.24,-0.47,-10.2,-3.78,4.09,-3.35,-0.0,-0.01,1.03,1000
17:42:14.000,-2.09,-0.35,-10.23,-3.35,4.27,-2.99,0.01,-0.04,1.02,1000
17:42:14.000,-2.11,-0.27,-10.26,-1.77,3.17,-1.95,-0.0,-0.04,1.02,1000
17:42:14.000,-2.1,-0.15,-10.28,-0.43,1.52,-1.04,-0.0,-0.03,1.04,1000
17:42:14.000,-2.19,-0.15,-10.28,1.28,-0.43,0.18,0.01,-0.06,1.04,1000
17:42:14.000,-2.48,-0.25,-10.27,2.38,-2.32,1.22,0.02,-0.06,1.05,1000
17:42:14.000,-2.72,-0.43,-10.25,3.6,-3.54,1.71,0.02,-0.07,1.03,1000
17:42:14.000,-2.94,-0.46,-10.24,4.21,-4.15,1.34,0.0,-0.06,1.05,1000
17:42:14.000,-2.88,-0.45,-10.23,3.66,-4.63,0.61,0.01,-0.05,1.04,1000
17:42:14.000,-3.03,-0.6,-10.22,2.87,-4.76,0.79,0.02,-0.07,1.04,1000
17:42:14.000,-3.06,-0.77,-10.21,1.65,-4.27,1.16,0.02,-0.05,1.04,1000
17:42:14.006,-3.02,-1.01,-10.2,0.55,-3.29,1.77,0.04,-0.06,1.03,1000
17:42:14.015,-3.02,-1.12,-10.18,-0.43,-1.89,1.46,0.02,-0.05,1.02,1000
17:42:14.026,-2.78,-0.99,-10.17,-1.22,-0.3,0.3,0.01,-0.03,1.02,1000
17:42:14.037,-2.66,-0.83,-10.18,-1.83,0.61,-1.46,0.0,-0.04,1.03,1000
17:42:14.178,-2.54,-0.81,-10.2,-2.07,1.22,-2.07,0.02,-0.03,1.03,1000
17:42:14.178,-2.38,-0.91,-10.22,-1.34,1.71,-2.13,0.02,-0.04,1.02,1000
17:42:14.178,-2.42,-0.72,-10.25,0.43,1.71,-3.29,-0.01,-0.04,1.01,1000
17:42:14.178,-2.32,-0.38,-10.3,1.59,0.98,-4.63,-0.01,-0.04,1.03,1000
17:42:14.178,-2.37,-0.26,-10.35,1.77,-0.18,-4.39,0.0,-0.05,1.01,1000
17:42:14.178,-2.36,-0.33,-10.39,1.59,-1.46,-3.05,0.01,-0.03,1.03,1000
17:42:14.178,-2.29,-0.43,-10.41,0.91,-2.07,-1.65,0.01,-0.05,1.01,1000
17:42:14.178,-2.33,-0.48,-10.42,-0.06,-1.59,-0.67,0.01,-0.04,1.02,1000
17:42:14.178,-2.26,-0.36,-10.43,-1.34,-1.1,-0.61,-0.0,-0.03,1.01,1000
17:42:14.178,-2.09,-0.32,-10.43,-2.32,-1.22,-0.3,0.01,-0.03,1.02,1000
17:42:14.178,-2.06,-0.42,-10.43,-3.66,-0.79,0.55,0.02,-0.04,1.01,1000
17:42:14.178,-2.13,-0.45,-10.42,-3.96,-0.61,0.55,0.0,-0.04,1.02,1000
17:42:14.183,-2.15,-0.27,-10.42,-4.82,-0.55,-0.37,-0.0,-0.04,1.03,1000
17:42:14.192,-2.22,-0.14,-10.43,-4.82,-1.22,-0.73,-0.0,-0.05,1.03,1000
17:42:14.211,-2.27,-0.17,-10.44,-4.33,-2.07,-0.55,0.01,-0.04,1.03,1000
17:42:14.218,-2.24,-0.35,-10.44,-3.96,-2.74,0.85,0.02,-0.04,1.03,1000
17:42:14.224,-2.27,-0.54,-10.42,-3.29,-2.56,2.2,0.02,-0.04,1.03,1000
17:42:14.241,-2.26,-0.73,-10.4,-2.62,-1.83,2.26,0.02,-0.05,1.03,1000
17:42:14.248,-2.37,-0.34,-10.38,-2.74,-1.59,-0.06,-0.04,-0.05,1.04,1000
17:42:14.419,-2.22,0.24,-10.4,-3.78,-3.05,-2.5,-0.03,-0.02,1.05,1000
17:42:14.419,-1.92,0.2,-10.42,-5.79,-5.61,-0.91,0.01,-0.02,1.05,1000
17:42:14.419,-1.87,-0.11,-10.42,-5.37,-8.6,2.26,0.02,-0.03,1.04,1000
17:42:14.420,-1.98,-0.63,-10.37,-4.51,-10.67,5.61,0.04,-0.04,1.05,1000
17:42:14.420,-2.05,-1.09,-10.3,-4.15,-10.24,7.32,0.04,-0.04,1.05,1000
17:42:14.420,-2.05,-1.52,-10.22,-4.09,-7.87,7.01,0.06,-0.03,1.05,1000
17:42:14.420,-2.06,-1.94,-10.15,-3.17,-4.63,5.43,0.04,-0.05,1.03,1000
17:42:14.420,-2.3,-1.78,-10.11,-2.32,-1.46,1.65,0.01,-0.05,1.04,1000
17:42:14.420,-2.19,-1.47,-10.12,-2.99,1.04,-2.5,0.02,-0.03,1.06,1000
17:42:14.420,-2.27,-1.56,-10.15,-3.29,1.16,-3.41,0.04,-0.05,1.05,1000
17:42:14.422,-2.53,-1.82,-10.18,-1.89,-0.06,-2.13,0.05,-0.06,1.05,1000
17:42:14.422,-2.79,-2.13,-10.19,-0.67,-1.65,-0.06,0.06,-0.08,1.06,1000
17:42:14.422,-3.22,-2.4,-10.19,0.12,-1.77,0.61,0.06,-0.09,1.05,1000
17:42:14.422,-3.48,-2.3,-10.19,0.3,-1.22,-0.61,0.02,-0.07,1.06,1000
17:42:14.422,-3.38,-1.98,-10.21,0.0,-0.61,-3.17,0.01,-0.05,1.06,1000
17:42:14.426,-3.25,-1.74,-10.25,-1.04,-0.49,-4.63,0.02,-0.04,1.06,1000
17:42:14.434,-2.97,-1.73,-10.31,-1.16,-1.77,-4.02,0.03,-0.03,1.05,1000
17:42:14.616,-2.68,-1.72,-10.34,-0.79,-2.99,-2.62,0.03,-0.03,1.06,1000
17:42:14.616,-2.36,-1.77,-10.36,-0.3,-3.72,-0.91,0.04,-0.02,1.05,1000
17:42:14.616,-2.1,-1.92,-10.36,0.37,-3.66,0.55,0.04,-0.02,1.05,1000
17:42:14.616,-1.8,-1.65,-10.36,0.12,-3.72,0.06,-0.0,-0.01,1.07,1000
17:42:14.616,-1.46,-1.23,-10.37,-0.79,-3.6,-1.46,-0.01,0.01,1.07,1000
17:42:14.616,-1.13,-1.2,-10.38,-2.32,-4.63,-0.61,0.03,-0.01,1.07,1000
17:42:14.616,-0.95,-1.32,-10.37,-5.37,-6.34,1.52,0.04,-0.0,1.09,1000
17:42:14.616,-0.6,-1.71,-10.33,-7.32,-7.87,5.12,0.07,0.02,1.09,1000
17:42:14.616,-0.5,-2.34,-10.26,-10.06,-8.05,8.54,0.08,0.0,1.1,1000
17:42:14.616,-0.32,-2.92,-10.16,-11.71,-6.28,9.33,0.09,0.02,1.08,1000
17:42:14.616,-0.05,-3.11,-10.06,-13.05,-3.11,7.13,0.05,0.03,1.11,1000
17:42:14.616,0.16,-2.96,-10.02,-14.88,0.67,2.07,0.05,0.03,1.11,1000
17:42:14.617,0.24,-3.02,-10.02,-15.98,4.15,-1.77,0.07,0.01,1.12,1000
17:42:14.617,0.03,-3.15,-10.06,-15.3,6.71,-4.76,0.08,-0.01,1.11,1000
17:42:14.617,-0.32,-3.2,-10.12,-13.17,7.5,-7.07,0.06,-0.03,1.11,1000
17:42:14.617,-0.95,-2.77,-10.22,-9.82,7.13,-10.43,0.02,-0.07,1.11,1000
17:42:14.620,-1.37,-2.42,-10.35,-7.07,4.63,-12.44,0.02,-0.06,1.12,1000
17:42:14.823,-1.78,-2.19,-10.49,-4.33,0.98,-12.2,0.03,-0.07,1.11,1000
17:42:14.823,-2.35,-2.26,-10.61,0.12,-3.29,-10.24,0.06,-0.09,1.09,1000
17:42:14.824,-3.14,-2.57,-10.71,4.21,-5.37,-8.72,0.07,-0.13,1.09,1000
17:42:14.824,-3.85,-2.8,-10.8,7.32,-3.9,-8.72,0.06,-0.13,1.09,1000
17:42:14.824,-4.49,-2.85,-10.91,9.27,-0.06,-10.49,0.05,-0.13,1.07,1000
17:42:14.824,-4.92,-2.8,-11.04,10.85,4.94,-13.78,0.06,-0.12,1.05,1000
17:42:14.824,-5.19,-2.77,-11.21,12.8,8.96,-16.28,0.05,-0.13,1.03,1000
17:42:14.824,-5.63,-2.58,-11.4,14.82,11.34,-18.23,0.03,-0.14,1.01,1000
17:42:14.826,-5.92,-1.88,-11.62,15.43,11.46,-21.04,-0.01,-0.13,1.04,1000
17:42:14.826,-6.06,-1.37,-11.86,15.37,8.54,-21.34,0.01,-0.14,1.02,1000
17:42:14.826,-6.6,-1.27,-12.08,16.04,4.94,-18.6,0.03,-0.16,1.01,1000
17:42:14.826,-6.98,-1.41,-12.26,17.68,1.59,-14.02,0.04,-0.15,0.99,1000
17:42:14.826,-7.18,-1.56,-12.39,18.66,0.06,-10.12,0.04,-0.16,1.0,1000
17:42:14.826,-7.41,-1.74,-12.48,19.09,0.0,-7.62,0.04,-0.14,0.97,1000
17:42:14.826,-7.4,-1.77,-12.56,19.15,1.77,-7.2,0.03,-0.13,0.96,1000
17:42:14.826,-7.34,-1.47,-12.65,18.96,4.33,-9.15,-0.0,-0.12,0.96,1000
17:42:15.003,-6.54,-0.9,-13.04,18.11,7.99,-10.49,0.04,-0.1,0.92,1000
17:42:15.003,-6.3,-1.09,-13.14,18.54,8.05,-8.72,0.02,-0.1,0.92,1000
17:42:15.003,-6.02,-0.92,-13.23,18.72,8.6,-8.29,0.01,-0.08,0.9,1000
17:42:15.003,-5.65,-0.65,-13.32,17.8,9.33,-9.27,-0.0,-0.07,0.91,1000
17:42:15.003,-5.11,-0.34,-13.44,16.28,9.7,-10.79,-0.0,-0.05,0.89,1000
17:42:15.003,-4.54,-0.08,-13.57,15.18,9.7,-12.2,-0.01,-0.04,0.87,1000
17:42:15.003,-3.91,0.36,-13.71,13.29,8.96,-13.66,-0.03,-0.03,0.87,1000
17:42:15.003,-3.35,0.93,-13.87,11.95,7.44,-15.79,-0.05,-0.02,0.86,1000
17:42:15.003,-2.75,1.73,-14.05,9.45,5.3,-16.77,-0.06,-0.0,0.87,1000
17:42:15.003,-1.96,2.18,-14.23,6.77,1.89,-15.73,-0.04,0.01,0.86,1000
17:42:15.004,-1.47,2.36,-14.39,4.15,-0.98,-12.74,-0.04,-0.0,0.87,1000
17:42:15.004,-1.05,2.49,-14.51,1.89,-2.87,-9.15,-0.04,0.01,0.86,1000
17:42:15.004,-0.72,2.57,-14.59,-0.85,-3.6,-5.85,-0.04,0.0,0.87,1000
17:42:15.004,-0.53,2.53,-14.63,-4.21,-2.93,-2.5,-0.03,0.01,0.87,1000
17:42:15.004,-0.4,2.41,-14.64,-7.87,-1.83,0.79,-0.03,0.0,0.89,1000
17:42:15.004,-0.39,2.4,-14.62,-11.22,0.0,2.87,-0.04,0.0,0.89,1000
17:42:15.007,-0.37,2.6,-14.58,-14.63,0.98,4.57,-0.05,0.01,0.92,1000
17:42:15.019,-0.28,2.89,-14.51,-16.89,0.37,6.52,-0.07,0.01,0.91,1000
17:42:15.115,-0.44,3.33,-14.43,-17.99,-1.71,8.6,-0.07,0.0,0.96,1000
17:42:15.115,-0.15,3.2,-14.31,-18.35,-4.94,13.9,-0.03,0.02,0.96,1000
17:42:15.115,-0.5,2.54,-14.12,-17.01,-6.71,20.24,0.01,-0.04,0.96,1000
17:42:15.115,-1.08,1.53,-13.86,-15.61,-6.59,25.98,0.04,-0.04,0.97,1000
17:42:15.115,-1.51,0.66,-13.55,-16.77,-3.72,29.02,0.05,-0.05,1.0,1000
17:42:15.116,-2.25,-0.06,-13.23,-19.82,1.16,27.74,0.04,-0.07,1.01,1000
17:42:15.116,-2.62,-0.3,-12.95,-24.39,6.46,22.87,0.02,-0.04,1.04,1000
17:42:15.116,-2.71,-0.45,-12.74,-27.8,9.02,17.07,0.03,-0.03,1.04,1000
17:42:15.198,-2.9,-0.61,-12.58,-30.06,9.33,11.83,0.03,-0.04,1.05,1000
17:42:15.198,-2.99,-0.8,-12.48,-30.73,7.2,7.56,0.03,-0.04,1.05,1000
17:42:15.198,-3.33,-0.89,-12.41,-29.76,4.33,4.57,0.02,-0.07,1.06,1000
17:42:15.198,-3.84,-0.49,-12.39,-27.56,-0.79,0.61,-0.03,-0.1,1.08,1000
17:42:15.198,-4.18,-0.24,-12.39,-24.7,-5.91,-0.37,0.01,-0.06,1.13,1000
17:42:15.198,-4.56,-0.34,-12.38,-21.16,-11.59,2.68,-0.0,-0.11,1.11,1000
17:42:15.198,-4.94,-0.52,-12.33,-15.67,-16.4,7.2,0.02,-0.09,1.12,1000
17:42:15.198,-5.06,-1.01,-12.21,-11.22,-18.35,12.99,0.05,-0.1,1.12,1000
17:42:15.206,-5.29,-1.57,-12.03,-7.68,-16.71,17.68,0.07,-0.12,1.11,1000
17:42:15.392,-5.37,-2.42,-11.81,-5.98,-10.55,21.28,0.09,-0.1,1.1,1000
17:42:15.392,-5.28,-3.17,-11.57,-6.1,-1.83,22.13,0.1,-0.09,1.08,1000
17:42:15.392,-5.25,-3.52,-11.34,-6.95,6.95,18.84,0.07,-0.09,1.06,1000
17:42:15.392,-5.21,-3.16,-11.17,-8.41,12.93,12.74,0.02,-0.08,1.08,1000
17:42:15.392,-4.9,-2.7,-11.07,-11.16,14.33,7.32,0.05,-0.06,1.09,1000
17:42:15.392,-4.95,-2.68,-11.0,-12.56,11.83,5.49,0.06,-0.1,1.08,1000
17:42:15.392,-5.19,-2.78,-10.94,-11.46,7.26,5.55,0.07,-0.1,1.07,1000
17:42:15.392,-5.22,-2.89,-10.88,-9.82,2.68,6.22,0.05,-0.09,1.08,1000
17:42:15.392,-5.4,-2.78,-10.82,-7.68,-0.49,4.27,0.03,-0.11,1.07,1000
17:42:15.392,-5.46,-2.48,-10.79,-6.71,-1.65,0.91,0.03,-0.09,1.09,1000
17:42:15.392,-5.3,-2.38,-10.8,-6.16,-1.22,-1.52,0.04,-0.09,1.07,1000
17:42:15.392,-5.27,-2.47,-10.83,-4.21,0.61,-3.11,0.05,-0.1,1.06,1000
17:42:15.392,-5.24,-2.52,-10.87,-2.26,3.29,-3.78,0.04,-0.1,1.06,1000
17:42:15.393,-5.27,-2.08,-10.92,-0.37,5.0,-5.73,-0.01,-0.09,1.07,1000
17:42:15.393,-5.09,-1.44,-10.99,0.61,5.61,-6.52,-0.01,-0.08,1.07,1000
17:42:15.393,-5.08,-1.11,-11.05,1.34,4.27,-4.7,0.0,-0.11,1.07,1000
17:42:15.401,-5.03,-0.91,-11.07,4.27,1.4,2.87,0.02,-0.1,1.06,1000
17:42:15.461,-5.13,-0.94,-11.02,4.15,2.2,5.67,0.02,-0.1,1.04,1000
17:42:15.461,-5.06,-0.88,-10.95,3.48,5.37,6.16,0.01,-0.08,1.04,1000
17:42:15.461,-4.86,-0.62,-10.89,1.4,8.78,4.76,-0.0,-0.07,1.04,1000
17:42:15.461,-4.61,-0.46,-10.85,-0.55,11.83,2.8,0.01,-0.07,1.03,1000
17:42:15.461,-4.56,-0.33,-10.83,-1.77,13.17,1.28,-0.0,-0.08,1.03,1000
17:42:15.470,-4.58,0.01,-10.84,-2.44,12.01,-1.16,-0.01,-0.08,1.04,1000
17:42:15.480,-4.53,0.34,-10.86,-2.68,8.66,-2.56,-0.03,-0.09,1.03,1000
17:42:15.508,-4.66,0.94,-10.89,-2.56,3.9,-3.9,-0.05,-0.09,1.04,1000
17:42:15.508,-4.58,1.16,-10.93,-2.8,-2.13,-2.07,-0.02,-0.08,1.05,1000
17:42:15.512,-4.81,0.97,-10.93,-2.32,-6.46,1.65,0.0,-0.11,1.04,1000
17:42:15.539,-4.92,0.68,-10.88,-1.59,-8.54,5.91,0.01,-0.09,1.04,1000
17:42:15.540,-4.9,0.32,-10.8,-1.28,-7.44,8.72,0.01,-0.09,1.03,1000
17:42:15.545,-4.89,0.02,-10.69,-1.65,-3.29,9.88,0.02,-0.08,1.03,1000
17:42:15.555,-4.64,-0.19,-10.58,-1.83,2.56,9.76,0.01,-0.06,1.01,1000
17:42:15.573,-4.52,-0.2,-10.48,-1.95,7.87,8.23,0.01,-0.07,1.01,1000
17:42:15.577,-4.47,0.09,-10.41,-0.43,11.16,5.61,-0.04,-0.08,0.99,1000
17:42:15.598,-4.34,1.21,-10.37,0.24,10.0,1.95,-0.09,-0.07,1.03,1000
17:42:15.604,-4.01,1.7,-10.35,-0.06,4.76,2.8,-0.04,-0.05,1.04,1000
17:42:15.610,-4.15,1.6,-10.29,0.98,-1.46,7.74,-0.01,-0.11,1.03,1000
17:42:15.622,-4.54,1.11,-10.17,2.68,-5.79,13.84,0.02,-0.09,1.01,1000
17:42:15.636,-4.43,0.53,-9.99,3.6,-6.22,18.72,0.02,-0.08,1.01,1000
17:42:15.643,-4.33,0.21,-9.77,2.74,-2.87,19.33,0.01,-0.07,0.99,1000
17:42:15.654,-4.02,0.16,-9.57,1.46,2.99,17.01,-0.01,-0.04,0.98,1000
17:42:15.667,-3.58,0.34,-9.41,-0.79,8.35,12.87,-0.01,-0.04,0.99,1000
17:42:15.676,-3.28,0.28,-9.29,-3.23,12.56,9.57,0.01,-0.04,0.96,1000
17:42:15.724,-3.16,0.3,-9.2,-4.7,14.09,7.2,-0.0,-0.04,0.96,1000
17:42:15.724,-3.05,0.62,-9.14,-4.88,12.56,4.82,-0.03,-0.04,0.95,1000
17:42:15.724,-2.99,1.09,-9.09,-5.18,8.96,3.11,-0.03,-0.05,0.97,1000
17:42:15.724,-3.13,1.22,-9.06,-5.3,4.94,3.48,-0.01,-0.07,0.95,1000
17:42:15.736,-3.32,1.15,-9.01,-4.39,1.83,5.18,-0.01,-0.07,0.94,1000
17:42:15.744,-3.46,1.1,-8.94,-3.78,-0.12,6.59,-0.02,-0.06,0.94,1000
17:42:15.756,-3.4,1.09,-8.87,-5.0,0.18,7.68,-0.01,-0.05,0.95,1000
17:42:15.764,-3.44,1.15,-8.78,-7.01,1.95,7.93,-0.02,-0.06,0.94,1000
17:42:15.775,-3.38,1.14,-8.69,-8.78,4.39,8.48,-0.01,-0.04,0.94,1000
17:42:15.787,-3.42,1.24,-8.6,-10.55,6.22,8.72,-0.03,-0.06,0.93,1000
17:42:15.797,-3.52,1.79,-8.5,-11.4,6.65,8.29,-0.07,-0.05,0.94,1000
17:42:15.810,-3.4,2.36,-8.41,-11.34,5.61,9.33,-0.06,-0.05,0.95,1000
17:42:15.821,-3.5,2.42,-8.29,-10.06,3.11,12.56,-0.03,-0.06,0.94,1000
17:42:15.843,-3.58,2.21,-8.12,-7.68,0.43,17.2,-0.02,-0.06,0.94,1000
17:42:15.846,-3.57,1.97,-7.91,-4.45,-1.83,20.49,-0.03,-0.05,0.93,1000
17:42:15.863,-3.42,1.93,-7.67,-2.62,-2.2,21.34,-0.03,-0.04,0.93,1000
17:42:15.864,-3.2,1.82,-7.46,-2.01,-1.4,20.49,-0.02,-0.04,0.91,1000
17:42:15.876,-2.78,1.69,-7.23,-1.04,-0.06,17.26,-0.03,-0.03,0.89,1000
17:42:15.916,-2.61,1.99,-7.07,-0.79,1.1,12.32,-0.05,-0.03,0.88,1000
17:42:15.916,-2.43,2.38,-6.97,-0.85,2.13,6.46,-0.07,-0.03,0.89,1000
17:42:15.917,-2.46,2.77,-6.94,-3.29,3.48,1.4,-0.05,-0.05,0.9,1000
17:42:15.920,-2.6,2.84,-6.94,-5.79,5.37,-1.16,-0.04,-0.06,0.88,1000
17:42:15.938,-3.05,2.87,-6.96,-7.93,7.07,-2.01,-0.04,-0.08,0.89,1000
17:42:15.946,-3.74,2.92,-6.99,-11.1,7.38,-2.32,-0.05,-0.1,0.89,1000
17:42:15.951,-4.36,3.3,-7.02,-14.45,6.71,-3.66,-0.08,-0.1,0.89,1000
17:42:15.975,-4.97,3.78,-7.07,-18.9,5.79,-4.63,-0.07,-0.1,0.91,1000
17:42:15.975,-5.49,3.88,-7.12,-23.35,4.02,-4.63,-0.06,-0.11,0.9,1000
17:42:15.984,-6.22,3.9,-7.16,-26.52,1.59,-4.27,-0.06,-0.13,0.89,1000
17:42:15.995,-6.92,4.02,-7.22,-29.94,-1.1,-5.3,-0.07,-0.13,0.93,1000
17:42:16.011,-7.54,3.95,-7.28,-33.17,-3.23,-5.61,-0.06,-0.15,0.93,1000
17:42:16.017,-8.47,3.74,-7.34,-34.7,-5.18,-5.37,-0.04,-0.17,0.95,1000
17:42:16.029,-9.1,3.32,-7.39,-34.02,-8.17,-3.9,-0.03,-0.16,0.94,1000
17:42:16.041,-9.74,2.74,-7.42,-31.04,-10.06,-2.13,-0.01,-0.19,0.93,1000
17:42:16.051,-10.32,2.31,-7.43,-26.77,-12.2,-0.85,-0.03,-0.17,0.93,1000
17:42:16.061,-10.33,1.99,-7.44,-22.07,-13.72,-0.43,-0.02,-0.14,0.95,1000
17:42:16.072,-10.12,1.52,-7.44,-18.35,-14.45,0.18,-0.01,-0.14,0.95,1000
17:42:16.083,-9.68,1.14,-7.43,-14.02,-14.63,0.85,-0.01,-0.11,0.94,1000
17:42:16.124,-9.08,0.83,-7.42,-9.33,-14.27,1.16,-0.0,-0.1,0.95,1000
17:42:16.124,-8.45,0.64,-7.41,-2.8,-13.35,1.16,-0.02,-0.1,0.91,1000
17:42:16.156,-8.13,0.85,-7.4,7.62,-12.44,0.3,-0.03,-0.11,0.89,1000
17:42:16.156,-7.68,0.84,-7.39,19.02,-11.1,1.34,-0.01,-0.1,0.86,1000
17:42:16.156,-7.24,0.66,-7.35,30.37,-9.15,5.0,-0.0,-0.1,0.83,1000
17:42:16.156,-6.52,0.45,-7.27,42.5,-6.52,8.72,-0.01,-0.07,0.8,1000
17:42:16.166,-5.66,0.6,-7.16,51.04,-3.29,10.67,-0.02,-0.07,0.8,1000
17:42:16.177,-5.08,1.65,-7.05,57.07,-2.56,9.27,-0.12,-0.07,0.78,1000
17:42:16.182,-4.41,3.02,-6.96,56.83,-3.96,6.65,-0.08,-0.03,0.83,1000
17:42:16.197,-3.32,2.84,-6.88,50.43,-7.74,8.9,-0.02,-0.06,0.83,1000
17:42:16.204,-3.48,2.17,-6.76,42.13,-11.65,12.13,0.02,-0.14,0.77,1000
17:42:16.215,-4.11,0.7,-6.6,33.9,-14.94,15.73,0.07,-0.11,0.83,1000
17:42:16.226,-5.08,-0.08,-6.43,21.16,-17.2,14.63,0.02,-0.14,0.88,1000
17:42:16.252,-5.67,-0.31,-6.3,7.26,-16.59,9.33,-0.01,-0.12,0.83,1000
17:42:16.258,-6.17,-0.11,-6.25,-4.21,-14.33,-0.61,-0.02,-0.12,0.89,1000
17:42:16.260,-6.55,0.04,-6.32,-9.88,-11.1,-10.18,-0.02,-0.12,0.84,1000
17:42:16.278,-7.02,0.09,-6.5,-8.48,-6.34,-19.7,-0.01,-0.12,0.85,1000
17:42:16.292,-7.11,0.4,-6.76,-2.38,-4.09,-26.89,-0.03,-0.09,0.85,1000
17:42:16.293,-6.41,0.71,-7.08,11.16,-4.88,-31.04,-0.03,-0.04,0.85,1000
17:42:16.326,-5.94,1.04,-7.43,27.44,-8.41,-31.46,-0.03,-0.08,0.89,1000
17:42:16.326,-5.08,0.67,-7.76,42.74,-13.66,-26.77,0.04,-0.06,0.9,1000
17:42:16.326,-4.96,-0.39,-8.0,55.18,-16.59,-18.96,0.07,-0.16,0.9,1000
17:42:16.336,-4.99,-1.75,-8.16,63.54,-16.4,-11.04,0.1,-0.1,0.93,1000
17:42:16.354,-4.9,-2.9,-8.25,65.43,-11.4,-6.4,0.09,-0.14,0.9,1000
17:42:16.358,-4.87,-3.25,-8.31,64.27,-0.91,-6.1,0.04,-0.13,0.88,1000
17:42:16.370,-5.34,-2.51,-8.39,57.26,9.76,-9.15,-0.03,-0.13,0.93,1000
17:42:16.423,-5.13,-1.45,-8.52,44.09,19.76,-13.05,-0.03,-0.1,0.93,1000
17:42:16.423,-4.7,-0.74,-8.66,27.07,25.67,-12.5,0.01,-0.05,1.01,1000
17:42:16.423,-4.3,-0.57,-8.76,11.95,26.89,-7.5,0.02,-0.07,0.95,1000
17:42:16.423,-4.89,-0.78,-8.8,-4.21,22.07,0.61,0.06,-0.13,1.0,1000
17:42:16.424,-5.67,-1.12,-8.76,-14.88,15.61,5.91,0.06,-0.15,0.96,1000
17:42:16.435,-6.49,-1.32,-8.67,-22.13,8.23,7.99,0.03,-0.12,0.99,1000
17:42:16.446,-7.21,-1.31,-8.6,-26.59,3.23,4.27,-0.0,-0.15,0.96,1000
17:42:16.462,-7.96,-0.65,-8.61,-27.87,-0.49,-5.12,-0.03,-0.14,1.0,1000
17:42:16.471,-8.72,0.09,-8.73,-28.9,-3.84,-15.79,-0.07,-0.18,1.02,1000
17:42:16.484,-9.17,0.8,-8.97,-29.63,-6.95,-26.83,-0.08,-0.18,1.07,1000
17:42:16.490,-9.65,1.42,-9.32,-29.76,-11.65,-33.6,-0.07,-0.17,1.12,1000
17:42:16.543,-9.35,1.31,-9.69,-27.07,-16.89,-33.11,0.0,-0.13,1.14,1000
17:42:16.544,-9.62,0.51,-10.01,-21.28,-23.17,-25.85,0.05,-0.21,1.14,1000
17:42:16.544,-9.99,-0.72,-10.24,-13.6,-28.35,-16.71,0.09,-0.19,1.13,1000
17:42:16.544,-9.76,-1.79,-10.38,-10.0,-29.88,-10.0,0.08,-0.14,1.17,1000
17:42:16.553,-9.22,-2.49,-10.47,-9.27,-26.28,-8.35,0.07,-0.11,1.15,1000
17:42:16.560,-9.25,-2.68,-10.57,-8.29,-19.76,-10.85,0.01,-0.19,1.1,1000
17:42:16.567,-9.13,-1.78,-10.73,-9.94,-13.11,-17.32,-0.06,-0.16,1.21,1000
17:42:16.578,-8.48,-1.08,-10.94,-12.87,-8.54,-18.48,-0.02,-0.12,1.25,1000
17:42:16.590,-8.1,-1.21,-11.1,-10.18,-8.9,-10.85,0.05,-0.18,1.17,1000
17:42:16.608,-8.67,-2.38,-11.14,-1.28,-13.29,4.09,0.17,-0.22,1.19,1000
17:42:16.614,-9.2,-4.04,-11.0,5.79,-18.29,19.51,0.2,-0.24,1.17,1000
17:42:16.625,-9.33,-5.37,-10.73,8.17,-20.49,27.8,0.17,-0.17,1.18,1000
17:42:16.668,-8.9,-5.95,-10.42,4.57,-17.44,27.13,0.12,-0.15,1.16,1000
17:42:16.668,-8.6,-5.35,-10.17,-4.33,-11.22,16.83,0.01,-0.13,1.18,1000
17:42:16.668,-7.48,-4.28,-10.07,-16.34,-3.66,3.54,0.02,-0.02,1.22,1000
17:42:16.668,-6.55,-3.71,-10.1,-27.5,1.1,-6.95,0.04,-0.08,1.2,1000
17:42:16.677,-6.34,-3.36,-10.22,-31.89,0.18,-12.56,0.06,-0.06,1.2,1000
17:42:16.692,-5.23,-3.8,-10.35,-32.56,-6.04,-9.21,0.14,0.02,1.24,1000
17:42:16.700,-4.84,-4.54,-10.39,-29.39,-13.54,-0.18,0.16,-0.07,1.2,1000
17:42:16.735,-4.66,-5.4,-10.35,-22.44,-18.11,6.95,0.16,-0.04,1.21,1000
17:42:16.735,-3.83,-5.81,-10.25,-17.5,-17.01,9.09,0.11,-0.03,1.18,1000
17:42:16.735,-3.73,-5.23,-10.18,-16.83,-8.48,3.35,0.02,-0.07,1.23,1000
17:42:16.743,-3.34,-4.47,-10.19,-20.37,3.54,-4.51,0.04,-0.01,1.25,1000
17:42:16.764,-3.06,-3.93,-10.27,-26.22,16.46,-9.15,0.05,-0.02,1.26,1000
17:42:16.768,-1.99,-2.72,-10.39,-32.87,21.89,-11.59,-0.08,0.12,1.27,1000
17:42:16.778,1.22,-0.43,-10.53,-46.83,17.8,-14.15,-0.24,0.59,1.51,1000
17:42:16.787,5.8,2.51,-10.69,-67.13,0.67,-13.84,-0.39,0.56,1.51,1000
17:42:16.799,5.83,4.66,-10.84,-73.17,-22.99,-13.11,-0.39,-0.05,1.36,1000
17:42:16.811,1.84,5.82,-10.92,-68.9,-45.67,-4.15,-0.25,-0.4,1.4,1000
17:42:16.823,-4.26,4.76,-10.83,-67.32,-70.06,18.23,0.02,-0.77,1.47,1000
17:42:16.835,-11.07,1.53,-10.45,-67.5,-87.8,50.24,0.29,-0.92,1.48,1000
17:42:16.846,-16.05,-2.08,-9.68,-64.51,-93.41,82.62,0.36,-0.89,1.44,1000
17:42:16.872,-19.69,-4.54,-8.61,-50.49,-86.1,104.57,0.21,-0.77,1.38,1000
17:42:16.872,-21.58,-5.17,-7.44,-26.95,-70.0,106.34,0.07,-0.59,1.38,1000
17:42:16.875,-20.94,-4.9,-6.41,-6.4,-56.46,98.78,0.05,-0.33,1.39,1000
17:42:16.887,-18.39,-4.57,-5.32,15.18,-40.91,83.23,0.04,-0.2,1.39,1000
17:42:16.899,-16.1,-4.54,-4.51,30.24,-28.23,67.26,0.09,-0.11,1.37,1000
17:42:16.913,-13.79,-4.82,-3.85,41.65,-15.73,54.39,0.13,-0.15,1.21,1000
17:42:16.943,-12.51,-5.72,-3.33,52.13,-6.83,42.68,0.2,-0.26,1.16,1000
17:42:16.944,-12.9,-6.37,-2.92,59.09,-1.77,32.01,0.14,-0.35,1.06,1000
17:42:16.944,-13.51,-6.25,-2.64,61.46,0.3,20.06,0.14,-0.33,1.1,1000
17:42:16.962,-13.7,-6.85,-2.47,59.45,0.85,13.05,0.19,-0.32,1.03,1000
17:42:16.969,-14.08,-7.72,-2.36,59.51,1.4,8.9,0.2,-0.29,0.92,1000
17:42:16.974,-13.85,-8.65,-2.27,61.04,1.46,7.2,0.22,-0.24,0.89,1000
17:42:16.987,-13.21,-9.66,-2.2,61.52,3.29,6.34,0.2,-0.19,0.84,1000
17:42:16.996,-12.09,-10.47,-2.14,60.3,7.44,5.24,0.19,-0.13,0.8,1000
17:42:17.007,-10.14,-11.14,-2.08,57.44,13.9,4.7,0.19,-0.07,0.78,1000
17:42:17.018,-8.18,-11.42,-2.04,52.74,21.95,2.68,0.17,-0.03,0.74,1000
17:42:17.030,-6.18,-11.01,-2.03,46.95,28.96,-0.49,0.11,-0.02,0.74,1000
17:42:17.040,-4.49,-9.72,-2.06,35.49,35.73,-4.94,0.08,0.02,0.78,1000
17:42:17.053,-2.49,-8.58,-2.13,19.09,40.79,-6.59,0.09,0.04,0.81,1000
17:42:17.064,-1.6,-7.96,-2.19,3.84,43.54,-5.3,0.1,0.0,0.82,1000
17:42:17.074,-1.4,-7.45,-2.23,-13.23,42.56,-0.85,0.11,-0.01,0.84,1000
17:42:17.085,-1.54,-7.02,-2.2,-26.52,38.96,4.57,0.1,-0.03,0.85,1000
17:42:17.095,-2.28,-6.24,-2.12,-37.2,32.93,9.15,0.05,-0.08,0.86,1000
17:42:17.106,-3.63,-4.79,-2.01,-45.43,25.49,11.4,0.0,-0.12,0.92,1000
17:42:17.147,-4.8,-3.42,-1.88,-52.13,17.07,12.93,0.0,-0.12,0.98,1000
17:42:17.147,-5.96,-2.99,-1.71,-55.91,9.27,17.99,0.05,-0.17,0.99,1000
17:42:17.147,-7.53,-2.9,-1.47,-56.46,3.41,23.84,0.07,-0.2,1.07,1000
17:42:17.162,-8.46,-3.21,-1.19,-54.39,0.12,31.71,0.11,-0.19,1.08,1000
17:42:17.179,-9.68,-3.76,-0.75,-47.74,1.22,39.39,0.12,-0.25,1.09,1000
17:42:17.180,-10.57,-4.26,-0.3,-40.0,5.12,42.62,0.12,-0.21,1.1,1000
17:42:17.183,-10.86,-4.39,0.17,-31.83,11.95,42.01,0.08,-0.2,1.1,1000
17:42:17.197,-10.96,-4.19,0.61,-26.46,18.66,36.83,0.07,-0.19,1.1,1000
17:42:17.205,-10.99,-3.73,0.96,-21.71,25.43,27.93,0.05,-0.22,1.1,1000
17:42:17.218,-11.33,-2.47,1.2,-17.74,27.93,16.71,-0.04,-0.24,1.15,1000
17:42:17.227,-11.27,-1.47,1.31,-15.3,26.59,5.79,0.0,-0.16,1.16,1000
17:42:17.238,-10.67,-1.3,1.34,-12.87,21.4,2.74,0.05,-0.18,1.19,1000
17:42:17.250,-10.45,-1.45,1.38,-11.04,14.15,3.17,0.07,-0.19,1.18,1000
17:42:17.264,-10.05,-1.64,1.42,-8.78,6.59,4.88,0.06,-0.17,1.2,1000
17:42:17.280,-9.82,-1.77,1.47,-7.38,1.95,4.27,0.05,-0.19,1.16,1000
17:42:17.282,-9.75,-1.95,1.51,-5.73,1.28,1.46,0.06,-0.2,1.15,1000
17:42:17.294,-10.02,-2.11,1.5,-4.76,4.27,-2.93,0.06,-0.23,1.12,1000
17:42:17.306,-10.75,-2.18,1.44,-2.56,9.39,-7.74,0.06,-0.29,1.09,1000
17:42:17.315,-12.01,-1.89,1.31,3.29,14.21,-14.21,0.0,-0.34,1.06,1000
17:42:17.349,-13.1,-1.26,1.12,12.01,16.77,-20.3,-0.01,-0.32,1.05,1000
17:42:17.350,-13.94,-0.81,0.87,24.57,14.94,-23.11,0.0,-0.32,1.0,1000
17:42:17.350,-14.57,-0.41,0.61,40.85,9.45,-23.29,-0.02,-0.31,0.94,1000
17:42:17.361,-14.42,0.06,0.36,55.0,2.26,-22.74,-0.03,-0.24,0.94,1000
17:42:17.378,-13.82,0.49,0.11,65.24,-5.73,-22.13,-0.04,-0.22,0.92,1000
17:42:17.382,-13.02,0.71,-0.1,69.7,-12.13,-21.22,-0.02,-0.17,0.89,1000
17:42:17.394,-11.74,0.67,-0.35,69.82,-16.89,-20.3,-0.01,-0.15,0.89,1000
17:42:17.403,-10.47,0.57,-0.57,65.18,-20.12,-19.51,-0.02,-0.15,0.88,1000
17:42:17.416,-9.94,1.19,-0.79,54.94,-24.76,-20.79,-0.08,-0.16,0.97,1000
17:42:17.433,-8.81,1.39,-1.0,42.62,-30.06,-20.18,-0.04,-0.06,1.0,1000
17:42:17.436,-7.58,0.8,-1.19,27.07,-35.85,-14.45,0.04,-0.1,1.04,1000
17:42:17.447,-7.3,-0.68,-1.3,16.16,-39.02,-4.51,0.1,-0.13,0.98,1000
17:42:17.460,-6.73,-2.58,-1.28,10.12,-37.38,5.49,0.15,-0.07,1.02,1000
17:42:17.480,-5.92,-4.53,-1.16,4.15,-30.55,15.0,0.19,-0.04,0.96,1000
17:42:17.481,-4.8,-6.11,-0.96,-1.52,-19.21,19.88,0.18,0.0,0.98,1000
17:42:17.491,-3.83,-6.93,-0.74,-7.5,-6.28,19.15,0.13,-0.02,0.96,1000
17:42:17.502,-3.77,-6.78,-0.56,-12.62,7.68,12.87,0.08,-0.06,0.97,1000
17:42:17.513,-3.7,-6.1,-0.47,-19.02,17.38,4.94,0.07,-0.03,1.01,1000
17:42:17.525,-3.61,-5.59,-0.46,-23.9,22.07,-1.34,0.1,-0.06,1.0,1000
17:42:17.555,-3.93,-5.52,-0.49,-24.88,22.8,-4.27,0.11,-0.08,0.99,1000
17:42:17.555,-4.44,-5.48,-0.55,-23.35,21.22,-5.79,0.1,-0.1,1.0,1000
17:42:17.557,-5.02,-5.19,-0.63,-21.04,18.84,-7.93,0.08,-0.12,1.0,1000
17:42:17.588,-5.42,-4.65,-0.74,-18.66,17.07,-11.71,0.05,-0.1,0.99,1000
17:42:17.588,-5.6,-3.86,-0.9,-15.73,15.06,-17.07,0.02,-0.11,1.0,1000
17:42:17.590,-5.71,-2.93,-1.12,-12.87,13.11,-23.35,-0.0,-0.09,1.01,1000
17:42:17.601,-5.57,-2.27,-1.41,-10.18,12.01,-27.8,0.02,-0.09,1.01,1000
17:42:17.612,-5.62,-1.88,-1.73,-7.13,10.85,-30.73,0.02,-0.11,1.02,1000
17:42:17.623,-5.67,-1.61,-2.08,-5.3,10.24,-32.56,0.02,-0.12,0.99,1000
17:42:17.636,-5.73,-1.53,-2.45,-2.26,11.59,-33.6,0.03,-0.11,1.01,1000
17:42:17.653,-6.28,-0.96,-2.83,0.79,11.59,-35.98,-0.04,-0.15,1.02,1000
17:42:17.656,-6.31,-0.08,-3.25,3.05,10.73,-39.39,-0.05,-0.09,1.05,1000
17:42:17.669,-6.06,0.5,-3.69,4.7,7.87,-39.51,-0.03,-0.12,1.07,1000
17:42:17.684,-6.29,0.99,-4.11,9.51,3.41,-38.29,-0.06,-0.15,1.06,1000
17:42:17.689,-6.33,1.43,-4.52,14.63,-2.93,-35.18,-0.04,-0.11,1.09,1000
17:42:17.710,-6.23,1.36,-4.88,18.96,-7.44,-30.18,-0.02,-0.14,1.08,1000
17:42:17.713,-6.41,1.09,-5.18,23.48,-10.3,-24.51,0.0,-0.14,1.03,1000
17:42:17.722,-6.29,0.56,-5.42,26.59,-10.91,-19.82,0.03,-0.13,1.03,1000
17:42:17.759,-6.32,0.02,-5.62,27.26,-8.9,-17.68,0.03,-0.14,1.0,1000
17:42:17.759,-6.64,-0.05,-5.82,26.46,-5.85,-18.9,-0.03,-0.16,1.0,1000
17:42:17.759,-6.9,0.46,-6.05,24.33,-3.54,-22.13,-0.03,-0.14,1.02,1000
17:42:17.776,-6.46,0.2,-6.26,20.91,-3.35,-20.73,0.04,-0.08,1.03,1000
17:42:17.778,-5.94,-0.54,-6.48,18.84,-2.5,-15.91,0.06,-0.1,1.01,1000
17:42:17.788,-5.76,-1.37,-6.63,16.34,-0.85,-12.26,0.08,-0.1,1.02,1000
17:42:17.806,-5.54,-2.19,-6.75,12.74,3.78,-9.82,0.1,-0.09,0.98,1000
17:42:17.814,-5.3,-2.94,-6.85,7.26,9.63,-9.02,0.1,-0.08,0.99,1000
17:42:17.821,-4.94,-3.35,-6.96,0.43,16.34,-11.04,0.08,-0.07,0.98,1000
17:42:17.832,-4.67,-3.43,-7.1,-6.16,22.26,-14.15,0.08,-0.06,0.98,1000
17:42:17.848,-4.86,-3.21,-7.28,-10.73,26.28,-18.48,0.04,-0.11,0.96,1000
17:42:17.856,-5.31,-2.38,-7.52,-14.51,26.04,-23.72,-0.01,-0.1,1.01,1000
17:42:17.869,-5.34,-1.51,-7.8,-16.83,21.77,-26.16,-0.01,-0.09,1.02,1000
17:42:17.883,-5.63,-1.1,-8.07,-16.46,14.45,-24.02,0.01,-0.11,1.03,1000
17:42:17.899,-5.86,-0.9,-8.31,-12.56,6.52,-19.82,0.01,-0.1,1.02,1000
17:42:17.899,-5.86,-0.85,-8.5,-8.29,-0.18,-15.24,0.02,-0.1,1.03,1000
17:42:17.909,-6.03,-0.99,-8.64,-5.3,-2.62,-11.4,0.03,-0.12,1.02,1000
17:42:17.921,-6.33,-0.74,-8.76,-3.6,-2.8,-10.85,-0.03,-0.13,1.05,1000
17:42:17.931,-6.18,-0.16,-8.89,-3.23,-2.56,-11.71,-0.03,-0.08,1.07,1000
17:42:17.966,-5.96,-0.07,-9.01,-2.56,-2.93,-10.12,0.01,-0.11,1.07,1000
17:42:17.966,-6.08,-0.35,-9.1,0.61,-2.99,-6.22,0.03,-0.12,1.04,1000
17:42:17.966,-6.23,-0.76,-9.15,3.41,-1.95,-2.07,0.04,-0.13,1.06,1000
17:42:17.976,-6.52,-1.1,-9.15,4.21,0.3,0.24,0.05,-0.15,1.04,1000
17:42:17.987,-6.78,-1.53,-9.15,4.94,4.15,1.04,0.06,-0.14,1.03,1000
17:42:18.000,-6.95,-1.6,-9.14,5.49,6.89,-0.91,0.02,-0.14,1.03,1000
17:42:18.008,-6.78,-1.38,-9.18,5.91,7.74,-4.94,0.02,-0.1,1.02,1000
17:42:18.024,-6.44,-1.29,-9.26,5.79,7.26,-8.41,0.02,-0.1,1.02,1000
17:42:18.030,-6.39,-1.27,-9.36,5.61,6.16,-11.4,0.03,-0.11,1.0,1000
17:42:18.041,-6.33,-1.28,-9.52,4.63,4.51,-14.7,0.03,-0.11,1.01,1000
17:42:18.052,-6.37,-1.28,-9.69,2.93,3.41,-16.95,0.02,-0.12,1.0,1000
17:42:18.064,-6.43,-1.17,-9.89,1.46,2.13,-18.78,0.01,-0.12,1.0,1000
17:42:18.078,-6.34,-0.98,-10.11,-0.43,0.73,-19.82,0.01,-0.1,1.01,1000
17:42:18.099,-6.1,-0.99,-10.32,-2.5,-0.79,-18.54,0.02,-0.09,1.0,1000
17:42:18.099,-6.06,-1.09,-10.51,-3.96,-1.65,-15.91,0.02,-0.1,0.99,1000
17:42:18.109,-6.07,-1.01,-10.67,-5.37,-2.2,-13.78,0.0,-0.12,1.0,1000
17:42:18.118,-6.65,-0.45,-10.81,-4.94,-3.54,-11.89,-0.06,-0.17,0.98,1000
17:42:18.166,-7.07,0.66,-10.93,-4.33,-5.91,-10.24,-0.08,-0.1,1.04,1000
17:42:18.166,-6.39,1.1,-11.01,-3.11,-12.5,-3.78,-0.05,-0.05,1.05,1000
17:42:18.166,-5.92,1.38,-10.99,0.67,-20.85,5.0,-0.06,-0.08,1.04,1000
17:42:18.166,-5.29,1.46,-10.89,5.67,-28.11,13.41,-0.04,-0.04,1.04,1000
17:42:18.176,-4.6,1.07,-10.69,7.74,-31.71,20.12,0.0,-0.04,1.05,1000
17:42:18.192,-4.23,0.11,-10.44,6.52,-30.06,23.96,0.05,-0.07,1.02,1000
17:42:18.199,-4.12,-0.88,-10.17,2.8,-23.48,23.96,0.07,-0.08,1.02,1000
17:42:18.207,-4.48,-1.62,-9.93,-0.79,-15.43,20.79,0.05,-0.13,0.98,1000
17:42:18.217,-5.19,-1.61,-9.74,-6.34,-8.11,13.78,0.02,-0.12,1.04,1000
17:42:18.228,-5.36,-1.9,-9.62,-11.22,-4.45,9.51,0.07,-0.1,1.03,1000
17:42:18.253,-5.64,-2.42,-9.52,-13.29,-3.11,8.6,0.07,-0.11,1.02,1000
17:42:18.253,-5.91,-2.76,-9.43,-12.93,-4.88,8.84,0.08,-0.11,1.02,1000
17:42:18.263,-6.16,-3.19,-9.33,-11.04,-7.07,9.45,0.08,-0.12,1.03,1000
17:42:18.272,-6.42,-3.6,-9.22,-8.54,-8.66,9.39,0.09,-0.12,1.01,1000
17:42:18.283,-6.29,-4.01,-9.13,-7.07,-9.09,7.74,0.09,-0.09,1.04,1000
17:42:18.305,-6.06,-4.27,-9.06,-6.34,-7.62,4.82,0.08,-0.09,1.02,1000
17:42:18.305,-5.94,-4.43,-9.03,-5.85,-4.57,0.85,0.08,-0.09,1.03,1000
17:42:18.321,-5.72,-4.39,-9.04,-6.04,-1.77,-2.74,0.07,-0.08,1.03,1000
17:42:18.327,-5.46,-4.17,-9.09,-6.46,0.61,-5.61,0.06,-0.08,1.06,1000
17:42:18.338,-5.52,-3.81,-9.16,-5.12,0.85,-6.65,0.04,-0.11,1.04,1000
17:42:18.351,-5.4,-3.59,-9.23,-4.39,0.18,-5.49,0.06,-0.08,1.11,1000
17:42:18.367,-5.14,-3.69,-9.26,-3.48,-0.61,-1.83,0.07,-0.1,1.07,1000
17:42:18.371,-5.38,-3.78,-9.27,-1.46,0.18,0.85,0.08,-0.12,1.08,1000
17:42:18.382,-5.64,-3.88,-9.25,0.49,3.72,1.4,0.08,-0.12,1.06,1000
17:42:18.408,-5.8,-3.83,-9.25,1.34,9.45,-0.98,0.07,-0.12,1.06,1000
17:42:18.408,-6.0,-3.65,-9.28,1.71,16.89,-4.94,0.07,-0.11,1.03,1000
17:42:18.416,-5.92,-3.59,-9.36,1.95,24.15,-8.54,0.08,-0.11,1.03,1000
17:42:18.426,-6.09,-3.45,-9.48,1.77,30.98,-12.2,0.07,-0.12,1.0,1000
17:42:18.437,-6.52,-2.94,-9.64,2.68,36.59,-17.13,0.02,-0.15,1.0,1000
17:42:18.449,-6.74,-1.94,-9.86,3.05,38.17,-22.2,-0.02,-0.12,1.01,1000
17:42:18.459,-6.66,-0.63,-10.14,3.23,35.12,-26.46,-0.05,-0.11,1.02,1000
17:42:18.472,-6.67,0.65,-10.44,5.06,27.07,-27.99,-0.07,-0.13,1.02,1000
17:42:18.488,-6.68,1.48,-10.74,8.17,16.59,-25.98,-0.06,-0.12,1.02,1000
17:42:18.509,-6.76,1.91,-11.0,12.01,6.4,-21.34,-0.06,-0.15,1.02,1000
17:42:18.509,-7.05,2.08,-11.2,14.63,-0.3,-16.95,-0.03,-0.15,1.0,1000
17:42:18.514,-7.18,1.93,-11.36,16.46,-2.38,-11.95,-0.02,-0.14,0.99,1000
17:42:18.530,-7.21,1.56,-11.47,16.1,-0.12,-8.29,0.0,-0.13,0.99,1000
17:42:18.536,-7.17,1.13,-11.54,14.7,4.45,-5.67,0.01,-0.14,0.97,1000
17:42:18.547,-7.17,0.96,-11.6,12.32,9.51,-4.7,-0.01,-0.12,0.99,1000
17:42:18.558,-6.67,0.92,-11.65,9.57,11.83,-3.84,0.0,-0.08,0.99,1000
17:42:18.576,-6.25,0.82,-11.68,7.07,10.85,-2.5,0.0,-0.09,1.0,1000
17:42:18.586,-5.82,0.5,-11.69,5.79,7.32,-0.37,0.02,-0.08,0.99,1000
17:42:18.591,-5.52,0.15,-11.68,3.78,2.99,2.13,0.03,-0.08,1.0,1000
17:42:18.604,-5.31,-0.39,-11.65,2.01,-0.61,2.8,0.03,-0.08,1.0,1000
17:42:18.616,-5.01,-0.67,-11.62,-0.79,-2.74,1.89,0.02,-0.06,1.02,1000
17:42:18.631,-4.55,-0.92,-11.62,-4.15,-4.45,-0.55,0.04,-0.05,1.01,1000
17:42:18.637,-4.36,-1.27,-11.63,-6.52,-4.94,-1.89,0.04,-0.06,1.02,1000
17:42:18.647,-4.31,-1.62,-11.66,-8.54,-5.3,-3.35,0.05,-0.07,1.01,1000
17:42:18.659,-4.34,-2.04,-11.7,-10.49,-4.88,-3.96,0.06,-0.08,1.03,1000
17:42:18.668,-4.63,-2.57,-11.74,-12.07,-4.02,-3.96,0.08,-0.1,1.03,1000
17:42:18.682,-5.02,-2.89,-11.79,-11.34,-2.8,-4.15,0.04,-0.11,1.02,1000
17:42:18.693,-5.44,-2.17,-11.85,-10.0,-3.17,-7.99,-0.03,-0.13,1.06,1000
17:42:18.709,-5.01,-1.75,-11.95,-9.57,-4.7,-9.33,0.02,-0.03,1.09,1000
17:42:18.714,-4.69,-1.81,-12.03,-8.11,-5.43,-7.01,0.03,-0.08,1.07,1000
17:42:18.724,-4.8,-1.85,-12.09,-4.7,-5.61,-3.54,0.04,-0.09,1.06,1000
17:42:18.734,-4.76,-1.94,-12.11,-2.2,-3.35,-0.55,0.04,-0.09,1.06,1000
17:42:18.745,-5.04,-1.86,-12.11,-1.83,1.71,0.49,0.03,-0.12,1.06,1000
17:42:18.762,-5.36,-1.74,-12.11,-2.07,8.54,0.0,0.03,-0.11,1.03,1000
17:42:18.785,-5.51,-1.55,-12.12,-2.74,14.7,-1.4,0.02,-0.12,1.03,1000
17:42:18.785,-5.82,-1.02,-12.15,-3.96,19.33,-4.63,-0.01,-0.12,1.03,1000
17:42:18.789,-5.99,-0.44,-12.22,-4.45,21.28,-7.32,-0.02,-0.11,1.03,1000
17:42:18.817,-6.39,0.24,-12.31,-4.33,19.88,-9.21,-0.04,-0.15,1.02,1000
17:42:18.817,-6.72,1.09,-12.42,-3.11,15.06,-10.85,-0.06,-0.12,1.04,1000
17:42:18.840,-6.55,1.64,-12.54,-1.22,8.35,-10.3,-0.05,-0.11,1.03,1000
17:42:18.840,-6.53,1.96,-12.64,1.46,1.28,-8.48,-0.05,-0.12,1.03,1000
17:42:18.846,-6.45,2.13,-12.72,4.39,-3.6,-6.71,-0.05,-0.11,1.03,1000
17:42:18.857,-6.4,2.24,-12.79,5.98,-5.12,-5.85,-0.04,-0.13,1.04,1000
17:42:18.876,-6.57,2.15,-12.85,6.83,-3.66,-4.63,-0.03,-0.13,1.02,1000
17:42:18.878,-6.76,2.1,-12.89,8.35,-2.07,-3.78,-0.04,-0.13,1.03,1000
17:42:18.888,-6.69,2.17,-12.93,9.09,-1.28,-2.87,-0.04,-0.12,1.02,1000
17:42:18.918,-6.71,2.09,-12.95,9.45,-1.71,-0.73,-0.03,-0.13,1.02,1000
17:42:18.919,-6.76,1.93,-12.94,9.63,-3.29,2.01,-0.02,-0.12,1.01,1000
17:42:18.921,-6.62,1.75,-12.9,9.33,-4.88,4.27,-0.02,-0.11,1.01,1000
17:42:18.932,-6.51,1.42,-12.84,8.35,-5.73,5.98,-0.0,-0.11,1.0,1000
17:42:18.943,-6.37,0.97,-12.77,6.95,-6.28,6.89,0.01,-0.1,0.99,1000
17:42:18.954,-6.14,0.59,-12.7,4.88,-5.98,6.65,0.01,-0.09,0.99,1000
17:42:18.966,-5.89,0.26,-12.63,2.62,-5.24,5.79,0.02,-0.09,0.98,1000
17:42:18.979,-5.63,-0.04,-12.57,-0.18,-4.76,4.09,0.02,-0.08,0.98,1000
17:42:18.988,-5.28,-0.34,-12.53,-2.8,-4.45,2.99,0.02,-0.06,0.98,1000
17:42:19.001,-5.03,-0.61,-12.51,-5.49,-4.76,1.95,0.02,-0.07,0.99,1000
17:42:19.027,-4.89,-0.82,-12.49,-7.99,-4.51,0.79,0.02,-0.07,0.99,1000
17:42:19.027,-4.64,-0.96,-12.49,-9.82,-4.27,0.18,0.02,-0.05,1.0,1000
17:42:19.031,-4.55,-1.01,-12.49,-11.46,-4.39,-0.98,0.02,-0.07,1.01,1000
17:42:19.048,-4.45,-1.16,-12.5,-11.95,-4.02,-0.91,0.03,-0.07,1.01,1000
17:42:19.053,-4.5,-1.26,-12.51,-12.32,-3.29,-0.67,0.02,-0.08,1.02,1000
17:42:19.066,-4.62,-1.34,-12.52,-12.5,-2.32,-0.67,0.03,-0.08,1.02,1000
17:42:19.075,-4.69,-1.32,-12.52,-11.89,-1.28,-0.43,0.01,-0.08,1.03,1000
17:42:19.087,-4.75,-1.13,-12.53,-11.22,-0.61,-0.98,0.01,-0.08,1.03,1000
17:42:19.102,-4.75,-1.0,-12.54,-10.18,-0.37,-1.04,0.01,-0.08,1.03,1000
17:42:19.119,-4.96,-0.82,-12.56,-9.02,-0.12,-1.59,-0.0,-0.1,1.03,1000
17:42:19.120,-5.13,-0.55,-12.58,-8.17,-0.43,-2.07,-0.01,-0.1,1.04,1000
17:42:19.134,-5.34,-0.39,-12.6,-7.8,-1.28,-2.01,0.0,-0.11,1.04,1000
17:42:19.141,-5.65,-0.35,-12.62,-7.01,-1.83,-1.59,0.0,-0.13,1.05,1000
17:42:19.152,-6.06,-0.25,-12.64,-6.28,-2.44,-1.46,-0.01,-0.14,1.05,1000
17:42:19.164,-6.41,-0.12,-12.65,-5.06,-3.35,-1.65,-0.01,-0.14,1.06,1000
17:42:19.174,-6.67,-0.11,-12.67,-3.84,-4.15,-1.59,0.0,-0.14,1.05,1000
17:42:19.190,-6.88,-0.13,-12.69,-1.65,-4.76,-1.4,-0.0,-0.14,1.04,1000
17:42:19.196,-7.07,-0.05,-12.71,1.4,-5.43,-2.07,-0.01,-0.14,1.04,1000
17:42:19.233,-7.1,0.15,-12.74,3.96,-6.34,-3.17,-0.02,-0.14,1.04,1000
17:42:19.233,-7.14,0.37,-12.78,6.4,-8.05,-4.09,-0.02,-0.13,1.04,1000
17:42:19.237,-7.04,0.34,-12.82,8.54,-10.49,-3.48,0.0,-0.12,1.04,1000
17:42:19.240,-6.98,0.06,-12.85,9.51,-11.89,-1.89,0.02,-0.13,1.03,1000
17:42:19.256,-6.92,-0.33,-12.86,9.94,-11.28,-0.24,0.03,-0.12,1.02,1000
17:42:19.262,-6.79,-0.65,-12.86,8.96,-8.48,0.0,0.02,-0.12,1.02,1000
17:42:19.273,-6.55,-0.91,-12.86,7.01,-3.96,-0.49,0.03,-0.1,1.01,1000
17:42:19.284,-6.16,-1.12,-12.87,4.88,0.3,-1.89,0.03,-0.08,1.02,1000
17:42:19.295,-5.66,-1.29,-12.9,2.26,4.39,-2.8,0.03,-0.07,1.01,1000
17:42:19.307,-5.2,-1.34,-12.93,0.73,6.89,-3.9,0.03,-0.06,1.01,1000
17:42:19.324,-4.89,-1.22,-12.99,-0.85,8.41,-5.37,0.01,-0.07,1.01,1000
17:42:19.346,-4.77,-0.99,-13.05,-2.44,8.66,-6.89,0.01,-0.08,1.02,1000
17:42:19.346,-4.77,-0.81,-13.14,-2.13,7.87,-8.05,0.0,-0.08,1.02,1000
17:42:19.350,-4.86,-0.59,-13.23,-1.52,6.89,-8.9,0.0,-0.1,1.03,1000
17:42:19.361,-4.98,-0.49,-13.33,-0.79,5.61,-8.84,0.02,-0.1,1.03,1000
17:42:19.372,-5.26,-0.41,-13.43,1.04,5.37,-8.48,0.0,-0.12,1.03,1000
17:42:19.383,-5.49,-0.35,-13.52,2.01,5.73,-8.11,0.01,-0.12,1.04,1000
17:42:19.405,-5.71,-0.31,-13.6,2.68,7.5,-7.32,0.01,-0.12,1.03,1000
17:42:19.406,-5.96,-0.22,-13.68,3.29,10.06,-6.34,0.0,-0.12,1.03,1000
17:42:19.425,-6.08,-0.01,-13.74,2.8,11.95,-5.79,-0.0,-0.12,1.04,1000
17:42:19.427,-6.18,0.3,-13.8,1.77,12.8,-5.18,-0.02,-0.12,1.02,1000
17:42:19.443,-6.28,0.71,-13.86,0.67,12.44,-4.57,-0.03,-0.12,1.03,1000
17:42:19.449,-6.27,1.04,-13.9,-0.67,10.67,-3.41,-0.03,-0.11,1.03,1000
17:42:19.460,-6.31,1.36,-13.93,-1.34,7.99,-2.2,-0.04,-0.12,1.02,1000
17:42:19.471,-6.4,1.64,-13.95,-1.71,5.49,-1.46,-0.04,-0.12,1.02,1000
17:42:19.482,-6.46,1.79,-13.96,-1.65,2.26,-0.18,-0.04,-0.12,1.02,1000
17:42:19.493,-6.57,1.81,-13.95,-1.34,-0.06,1.04,-0.03,-0.12,1.02,1000
17:42:19.504,-6.55,1.62,-13.93,-0.61,-1.95,2.62,-0.01,-0.12,1.02,1000
17:42:19.523,-6.54,1.38,-13.9,0.06,-2.38,3.48,-0.01,-0.11,1.03,1000
17:42:19.535,-6.43,1.15,-13.86,0.37,-1.89,3.96,-0.0,-0.1,1.03,1000
17:42:19.553,-6.29,0.93,-13.81,0.18,-0.55,4.02,-0.01,-0.11,1.02,1000
17:42:19.554,-6.11,1.1,-13.77,-0.67,-0.24,2.87,-0.04,-0.09,1.04,1000
17:42:19.559,-5.8,1.2,-13.74,-1.46,-1.65,2.56,-0.02,-0.08,1.04,1000
17:42:19.570,-5.57,0.97,-13.7,-3.54,-4.15,4.76,0.0,-0.09,1.06,1000
17:42:19.581,-5.57,0.64,-13.64,-5.98,-6.4,6.89,0.01,-0.1,1.04,1000
17:42:19.592,-5.6,0.26,-13.55,-7.68,-7.01,8.84,0.01,-0.11,1.07,1000
17:42:19.603,-5.8,-0.14,-13.45,-9.7,-5.91,9.27,0.03,-0.12,1.05,1000
17:42:19.615,-5.98,-0.57,-13.34,-10.61,-2.87,9.57,0.04,-0.11,1.06,1000
17:42:19.635,-6.15,-0.89,-13.25,-10.55,1.04,8.41,0.04,-0.12,1.05,1000
17:42:19.636,-6.3,-1.14,-13.16,-9.21,5.12,7.13,0.03,-0.12,1.04,1000
17:42:19.647,-6.37,-1.16,-13.1,-7.26,8.17,5.06,0.02,-0.11,1.05,1000
17:42:19.658,-6.37,-1.13,-13.05,-5.06,9.39,3.05,0.02,-0.12,1.05,1000
17:42:19.669,-6.36,-0.99,-13.03,-1.83,9.21,1.46,0.01,-0.11,1.05,1000
17:42:19.683,-6.31,-0.87,-13.02,1.28,8.23,0.49,0.01,-0.11,1.04,1000
17:42:19.708,-6.29,-0.74,-13.02,4.57,7.38,-0.79,0.0,-0.12,1.04,1000
17:42:19.708,-6.26,-0.48,-13.04,7.74,7.07,-2.56,-0.01,-0.11,1.04,1000
17:42:19.713,-6.04,-0.21,-13.08,9.94,7.62,-4.02,-0.02,-0.1,1.03,1000
17:42:19.750,-5.89,0.18,-13.14,11.89,8.48,-6.34,-0.02,-0.1,1.02,1000
17:42:19.750,-5.67,0.52,-13.21,13.41,9.45,-7.5,-0.03,-0.1,1.01,1000
17:42:19.750,-5.58,0.89,-13.31,15.12,9.88,-8.66,-0.03,-0.1,0.99,1000
17:42:19.759,-5.46,1.21,-13.4,16.04,9.09,-8.54,-0.03,-0.1,1.0,1000
17:42:19.770,-5.28,1.51,-13.49,15.85,7.74,-7.68,-0.04,-0.09,0.98,1000
17:42:19.790,-5.16,1.72,-13.57,15.37,5.73,-5.91,-0.04,-0.09,0.98,1000
17:42:19.792,-5.07,1.85,-13.62,13.66,3.23,-4.02,-0.04,-0.09,0.97,1000
17:42:19.801,-5.09,1.97,-13.65,10.91,1.04,-1.89,-0.04,-0.1,0.96,1000
17:42:19.812,-5.18,2.11,-13.66,7.32,-0.79,-0.37,-0.04,-0.1,0.97,1000
17:42:19.840,-5.18,2.26,-13.66,3.23,-2.8,0.67,-0.05,-0.09,0.96,1000
17:42:19.841,-5.2,2.4,-13.65,-0.3,-5.49,1.89,-0.05,-0.08,0.96,1000
17:42:19.845,-5.15,2.41,-13.62,-3.35,-8.41,2.87,-0.04,-0.09,0.98,1000
17:42:19.860,-5.21,2.13,-13.58,-6.28,-10.49,4.39,-0.02,-0.09,0.98,1000
17:42:19.867,-5.32,1.73,-13.52,-8.72,-10.85,5.85,-0.01,-0.09,0.99,1000
17:42:19.878,-5.46,1.35,-13.45,-10.12,-9.39,6.89,-0.01,-0.1,1.0,1000
17:42:19.889,-5.5,1.08,-13.37,-10.61,-6.95,6.71,-0.01,-0.09,1.01,1000
17:42:19.903,-5.55,0.8,-13.29,-10.12,-4.15,6.83,0.0,-0.1,1.01,1000
17:42:19.911,-5.75,0.49,-13.22,-9.09,-1.22,6.89,0.01,-0.11,1.02,1000
17:42:19.922,-5.96,0.15,-13.14,-7.8,1.52,7.38,0.02,-0.12,1.02,1000
17:42:19.933,-6.07,-0.0,-13.06,-5.91,2.87,7.2,0.0,-0.1,1.02,1000
17:42:19.944,-6.04,0.03,-12.99,-3.84,2.74,6.59,-0.0,-0.1,1.02,1000
17:42:19.955,-6.03,0.08,-12.92,-1.89,0.98,5.91,-0.01,-0.11,1.0,1000
17:42:19.968,-6.03,0.42,-12.86,-0.43,-2.44,4.82,-0.04,-0.1,1.01,1000
17:42:19.977,-5.88,0.69,-12.81,1.1,-7.01,4.82,-0.02,-0.09,1.01,1000
17:42:19.991,-5.72,0.55,-12.75,1.04,-11.59,6.28,0.0,-0.09,1.02,1000
17:42:20.000,-5.6,0.17,-12.66,1.22,-13.84,8.54,0.01,-0.09,1.0,1000
17:42:20.012,-5.5,-0.25,-12.56,0.37,-13.41,9.57,0.03,-0.09,1.01,1000
17:42:20.021,-5.32,-0.75,-12.46,-1.16,-10.37,9.39,0.04,-0.08,1.0,1000
17:42:20.040,-5.06,-1.24,-12.36,-3.6,-5.24,8.11,0.05,-0.07,1.01,1000
17:42:20.045,-4.75,-1.6,-12.29,-6.04,0.55,6.1,0.05,-0.06,1.0,1000
17:42:20.055,-4.56,-1.85,-12.24,-8.48,7.32,3.11,0.05,-0.07,1.0,1000
17:42:20.067,-4.61,-1.79,-12.23,-10.3,12.93,-0.3,0.03,-0.08,1.01,1000
17:42:20.076,-4.76,-1.32,-12.25,-10.67,15.73,-3.84,-0.02,-0.08,1.02,1000
17:42:20.088,-5.09,-0.56,-12.31,-9.76,14.88,-6.77,-0.03,-0.12,1.04,1000
17:42:20.101,-5.24,-0.27,-12.38,-9.33,10.37,-5.98,0.01,-0.11,1.07,1000
17:42:20.109,-5.79,-0.16,-12.44,-7.5,5.85,-3.96,-0.01,-0.16,1.06,1000
17:42:20.120,-6.46,-0.12,-12.46,-4.63,2.62,-1.71,0.0,-0.16,1.07,1000
17:42:20.143,-6.94,-0.12,-12.48,-3.11,2.32,-0.73,-0.0,-0.16,1.07,1000
17:42:20.143,-7.26,0.07,-12.49,-1.89,3.6,-1.83,-0.03,-0.15,1.06,1000
17:42:20.154,-7.2,0.45,-12.52,-1.83,5.73,-4.21,-0.03,-0.12,1.08,1000
17:42:20.166,-7.07,0.63,-12.58,-1.52,6.95,-5.3,-0.02,-0.13,1.06,1000
17:42:20.175,-7.11,0.79,-12.64,-0.67,7.38,-6.34,-0.02,-0.14,1.07,1000
17:42:20.192,-7.16,0.9,-12.72,-0.06,7.2,-6.71,-0.02,-0.14,1.06,1000
17:42:20.197,-7.36,1.2,-12.79,1.4,6.89,-7.44,-0.05,-0.15,1.06,1000
17:42:20.208,-7.56,1.63,-12.88,3.41,6.1,-8.9,-0.05,-0.15,1.05,1000
17:42:20.221,-7.63,1.89,-12.98,5.24,4.63,-9.45,-0.05,-0.15,1.05,1000
17:42:20.236,-7.8,2.11,-13.09,7.87,2.93,-10.0,-0.05,-0.15,1.02,1000
17:42:20.246,-7.85,2.18,-13.2,10.18,0.98,-9.76,-0.04,-0.15,1.03,1000
17:42:20.253,-8.0,2.14,-13.3,11.89,-0.98,-9.39,-0.03,-0.16,1.0,1000
17:42:20.264,-8.1,1.93,-13.4,12.62,-2.07,-8.41,-0.02,-0.15,1.01,1000
17:42:20.274,-8.12,1.69,-13.49,12.26,-3.48,-7.8,-0.02,-0.15,0.99,1000
17:42:20.287,-7.95,1.46,-13.58,10.85,-4.27,-7.32,-0.01,-0.13,0.99,1000
17:42:20.298,-7.56,1.32,-13.65,8.17,-5.18,-7.2,-0.02,-0.1,0.99,1000
17:42:20.307,-6.99,1.11,-13.73,4.63,-6.46,-6.52,-0.01,-0.08,1.0,1000
17:42:20.318,-6.36,0.82,-13.79,0.49,-7.44,-5.43,-0.0,-0.07,1.0,1000
17:42:20.347,-5.85,0.56,-13.85,-3.9,-7.8,-4.45,0.0,-0.07,1.0,1000
17:42:20.356,-5.6,0.3,-13.89,-8.23,-7.38,-3.72,0.01,-0.07,1.01,1000
17:42:20.356,-5.43,0.07,-13.93,-11.77,-6.4,-3.11,0.01,-0.08,1.01,1000
17:42:20.362,-5.44,-0.11,-13.96,-14.51,-4.94,-2.8,0.01,-0.09,1.02,1000
17:42:20.373,-5.58,-0.32,-13.99,-16.1,-3.35,-2.32,0.02,-0.1,1.03,1000
17:42:20.385,-5.88,-0.54,-14.02,-16.59,-1.28,-2.2,0.02,-0.12,1.04,1000
17:42:20.397,-6.27,-0.67,-14.04,-15.85,0.91,-2.38,0.02,-0.14,1.04,1000
17:42:20.408,-6.78,-0.77,-14.07,-13.84,1.89,-2.87,0.02,-0.14,1.05,1000
17:42:20.417,-7.08,-0.8,-14.11,-11.1,2.13,-3.11,0.02,-0.14,1.06,1000
17:42:20.428,-7.3,-0.88,-14.14,-8.84,1.52,-3.17,0.02,-0.15,1.06,1000
17:42:20.454,-7.48,-0.89,-14.18,-5.49,0.73,-4.21,0.01,-0.14,1.06,1000
17:42:20.455,-7.53,-0.81,-14.24,-2.07,0.18,-5.43,0.01,-0.14,1.06,1000
17:42:20.461,-7.53,-0.72,-14.31,0.37,0.37,-7.62,0.0,-0.14,1.05,1000
17:42:20.475,-7.5,-0.68,-14.4,2.74,1.1,-9.33,0.01,-0.13,1.04,1000
17:42:20.497,-7.41,-0.68,-14.52,4.27,2.44,-11.16,0.01,-0.13,1.04,1000
17:42:20.511,-7.3,-0.6,-14.66,5.06,4.33,-13.41,0.0,-0.13,1.03,1000
17:42:20.511,-7.24,-0.41,-14.82,5.49,5.67,-15.67,-0.01,-0.13,1.02,1000
17:42:20.518,-7.06,0.09,-15.0,5.49,4.57,-17.87,-0.04,-0.11,1.02,1000
17:42:20.527,-6.66,0.58,-15.21,5.98,2.38,-19.09,-0.03,-0.1,1.03,1000
17:42:20.553,-6.55,0.73,-15.41,5.79,-0.3,-18.17,-0.02,-0.13,1.03,1000
17:42:20.553,-6.66,0.78,-15.6,5.61,-1.89,-16.46,-0.02,-0.13,1.03,1000
17:42:20.560,-6.74,0.79,-15.78,4.63,-2.13,-15.0,-0.02,-0.14,1.04,1000
17:42:20.571,-6.84,0.82,-15.94,2.87,-1.22,-14.15,-0.02,-0.13,1.02,1000
17:42:20.582,-6.75,0.78,-16.08,1.22,0.55,-13.17,-0.01,-0.11,1.02,1000
17:42:20.593,-6.6,0.75,-16.23,-0.91,2.62,-12.93,-0.01,-0.11,1.03,1000
17:42:20.606,-6.49,0.77,-16.37,-3.41,5.43,-13.17,-0.01,-0.11,1.04,1000
17:42:20.619,-6.43,0.89,-16.52,-5.43,8.17,-13.9,-0.02,-0.11,1.03,1000
17:42:20.626,-6.54,1.09,-16.67,-6.65,10.85,-14.21,-0.03,-0.13,1.03,1000
17:42:20.639,-6.81,1.43,-16.83,-6.59,12.07,-14.51,-0.04,-0.14,1.03,1000
17:42:20.648,-7.11,1.88,-16.99,-5.85,11.4,-14.7,-0.06,-0.15,1.02,1000
17:42:20.659,-7.43,2.38,-17.15,-3.78,8.35,-13.96,-0.07,-0.15,1.02,1000
17:42:20.670,-7.72,2.77,-17.29,-1.59,3.66,-12.44,-0.07,-0.16,1.03,1000
17:42:20.681,-7.97,2.97,-17.42,1.04,-1.22,-10.49,-0.06,-0.16,1.03,1000
17:42:20.692,-8.16,3.01,-17.52,3.41,-5.37,-8.11,-0.06,-0.16,1.02,1000
17:42:20.709,-8.22,2.92,-17.6,5.43,-7.62,-6.34,-0.05,-0.15,1.01,1000
17:42:20.714,-8.1,2.81,-17.66,6.89,-8.6,-5.18,-0.05,-0.14,1.01,1000
17:42:20.726,-7.84,2.8,-17.72,8.11,-9.21,-5.18,-0.06,-0.12,1.01,1000
17:42:20.736,-7.37,2.75,-17.77,9.27,-10.18,-5.37,-0.04,-0.1,1.01,1000
17:42:20.751,-6.97,2.48,-17.83,9.88,-10.91,-4.88,-0.03,-0.11,1.0,1000
17:42:20.758,-6.77,2.13,-17.88,10.24,-11.28,-4.21,-0.01,-0.11,0.98,1000
17:42:20.774,-6.53,1.74,-17.92,10.24,-11.22,-3.48,-0.02,-0.1,0.97,1000
17:42:20.782,-6.22,1.54,-17.96,9.02,-11.4,-3.96,-0.02,-0.09,0.98,1000
17:42:20.792,-5.77,1.35,-18.01,6.77,-12.01,-4.27,-0.02,-0.07,0.96,1000
17:42:20.802,-5.31,1.14,-18.06,4.45,-12.5,-4.82,-0.01,-0.05,0.97,1000
17:42:20.813,-4.78,0.78,-18.11,1.16,-12.99,-4.88,0.0,-0.05,0.96,1000
17:42:20.824,-4.44,0.38,-18.17,-2.13,-12.32,-4.82,0.01,-0.06,0.97,1000
17:42:20.837,-4.27,0.01,-18.22,-5.73,-10.06,-5.12,0.02,-0.06,0.98,1000
17:42:20.864,-4.22,-0.28,-18.28,-9.76,-6.4,-5.43,0.02,-0.06,0.99,1000
17:42:20.864,-4.15,-0.45,-18.34,-13.29,-2.8,-6.04,0.01,-0.06,1.0,1000
17:42:20.868,-4.07,-0.5,-18.41,-15.98,1.04,-6.4,0.01,-0.05,1.02,1000
17:42:20.879,-3.96,-0.43,-18.48,-18.05,3.17,-6.52,0.0,-0.06,1.02,1000
17:42:20.890,-4.02,-0.29,-18.56,-18.54,4.21,-6.77,-0.0,-0.07,1.03,1000
17:42:20.901,-4.31,-0.08,-18.63,-18.17,4.94,-6.83,-0.01,-0.1,1.05,1000
17:42:20.914,-4.8,0.13,-18.71,-17.13,5.49,-7.26,-0.01,-0.12,1.05,1000
17:42:20.925,-5.39,0.47,-18.79,-14.88,6.22,-7.74,-0.04,-0.14,1.05,1000
17:42:20.936,-6.03,0.96,-18.88,-12.32,6.52,-8.6,-0.05,-0.15,1.06,1000
17:42:20.963,-6.55,1.35,-18.98,-9.39,6.34,-8.9,-0.05,-0.16,1.07,1000
17:42:20.963,-7.15,1.67,-19.08,-6.65,5.79,-8.41,-0.05,-0.18,1.07,1000
17:42:20.967,-7.67,1.93,-19.16,-3.66,5.0,-7.68,-0.05,-0.18,1.07,1000
17:42:20.980,-8.01,2.2,-19.24,-0.73,4.09,-6.4,-0.06,-0.17,1.07,1000
17:42:20.990,-8.25,2.47,-19.3,2.01,2.87,-5.79,-0.06,-0.17,1.06,1000
17:42:21.002,-8.3,2.77,-19.36,4.51,1.52,-5.06,-0.07,-0.16,1.07,1000
17:42:21.011,-8.3,2.93,-19.41,6.1,0.24,-4.02,-0.06,-0.16,1.05,1000
17:42:21.022,-8.33,3.01,-19.45,7.44,-0.55,-2.68,-0.06,-0.16,1.05,1000
17:42:21.033,-8.3,2.97,-19.47,7.99,-0.91,-0.91,-0.05,-0.15,1.04,1000
17:42:21.044,-8.22,2.87,-19.47,7.5,-0.79,0.79,-0.04,-0.15,1.03,1000
17:42:21.059,-8.13,2.66,-19.45,6.16,-0.06,2.62,-0.03,-0.14,1.03,1000
17:42:21.069,-7.98,2.47,-19.41,4.39,0.06,4.02,-0.03,-0.14,1.03,1000
17:42:21.079,-7.82,2.27,-19.36,2.87,-0.06,4.7,-0.02,-0.13,1.02,1000
17:42:21.088,-7.65,2.05,-19.3,2.13,-0.43,5.12,-0.02,-0.13,1.01,1000
17:42:21.099,-7.46,1.92,-19.25,1.22,-1.65,4.63,-0.02,-0.12,1.01,1000
17:42:21.112,-7.25,1.76,-19.2,0.73,-2.68,4.51,-0.02,-0.11,1.0,1000
17:42:21.122,-7.05,1.56,-19.15,0.79,-3.41,4.15,-0.01,-0.11,1.0,1000
17:42:21.132,-6.81,1.35,-19.11,1.4,-4.45,4.21,-0.01,-0.1,1.0,1000
17:42:21.143,-6.54,1.11,-19.06,1.28,-5.24,4.09,-0.0,-0.1,1.0,1000
17:42:21.157,-6.27,0.87,-19.02,1.16,-6.16,4.15,-0.0,-0.09,1.0,1000
17:42:21.167,-5.96,0.59,-18.97,0.73,-6.28,4.63,0.01,-0.08,1.01,1000
17:42:21.176,-5.72,0.29,-18.91,-0.43,-5.61,5.12,0.01,-0.09,1.01,1000
17:42:21.187,-5.64,0.07,-18.86,-1.77,-3.96,5.24,0.02,-0.1,1.01,1000
17:42:21.198,-5.59,-0.25,-18.8,-3.9,-0.67,5.18,0.02,-0.1,1.02,1000
17:42:21.209,-5.73,-0.4,-18.74,-5.12,2.56,4.45,0.01,-0.11,1.01,1000
17:42:21.230,-5.86,-0.38,-18.7,-5.85,5.06,3.29,0.0,-0.11,1.01,1000
17:42:21.232,-5.91,-0.2,-18.68,-5.85,6.04,1.28,-0.01,-0.11,1.02,1000
17:42:21.242,-5.97,0.0,-18.67,-4.94,5.12,0.0,-0.01,-0.11,1.02,1000
17:42:21.258,-6.18,0.05,-18.68,-3.66,2.87,-0.55,0.0,-0.13,1.02,1000
17:42:21.269,-6.49,0.04,-18.68,-2.38,1.04,-0.85,0.0,-0.14,1.02,1000
17:42:21.275,-6.82,0.0,-18.7,-1.16,-0.18,-1.16,0.0,-0.14,1.02,1000
17:42:21.287,-7.1,0.02,-18.72,-0.43,-0.55,-2.01,-0.01,-0.14,1.02,1000
17:42:21.297,-7.17,0.1,-18.74,-0.49,-0.3,-3.05,-0.01,-0.13,1.03,1000
17:42:21.308,-7.13,0.12,-18.78,-0.67,0.12,-3.35,-0.0,-0.12,1.02,1000
17:42:21.326,-7.09,0.07,-18.82,-1.46,1.16,-3.29,0.01,-0.13,1.03,1000
17:42:21.332,-7.1,0.02,-18.85,-2.07,2.8,-2.62,0.0,-0.13,1.03,1000
17:42:21.341,-7.14,0.03,-18.88,-2.93,4.45,-2.26,-0.0,-0.13,1.03,1000
17:42:21.352,-7.17,0.15,-18.9,-3.84,5.37,-2.13,-0.01,-0.13,1.04,1000
17:42:21.371,-7.19,0.36,-18.92,-4.45,5.49,-2.01,-0.02,-0.13,1.05,1000
17:42:21.378,-7.26,0.55,-18.94,-4.76,5.0,-1.77,-0.02,-0.14,1.05,1000
17:42:21.386,-7.41,0.69,-18.96,-4.39,3.35,-0.91,-0.02,-0.15,1.04,1000
17:42:21.396,-7.58,0.74,-18.96,-3.54,1.65,-0.18,-0.01,-0.15,1.04,1000
17:42:21.407,-7.77,0.69,-18.96,-1.83,-0.49,0.85,-0.01,-0.15,1.04,1000
17:42:21.419,-7.9,0.62,-18.95,-0.24,-1.83,1.16,-0.01,-0.14,1.05,1000
17:42:21.429,-7.89,0.52,-18.94,1.34,-2.8,1.04,-0.0,-0.15,1.05,1000
17:42:21.440,-7.87,0.39,-18.93,2.99,-2.5,-0.18,-0.0,-0.14,1.04,1000
17:42:21.453,-7.78,0.32,-18.94,4.15,-1.34,-2.01,-0.01,-0.14,1.04,1000
17:42:21.464,-7.65,0.33,-18.98,5.43,-0.3,-4.45,-0.01,-0.13,1.03,1000
17:42:21.473,-7.55,0.4,-19.04,6.1,0.67,-6.65,-0.01,-0.14,1.03,1000
17:42:21.484,-7.47,0.39,-19.13,6.46,0.91,-7.99,-0.01,-0.14,1.03,1000
17:42:21.497,-7.46,0.35,-19.22,6.71,0.61,-8.66,-0.0,-0.14,1.03,1000
17:42:21.506,-7.4,0.33,-19.31,6.52,-0.61,-8.35,-0.01,-0.13,1.02,1000
17:42:21.518,-7.26,0.31,-19.4,5.91,-2.32,-7.93,-0.0,-0.12,1.02,1000
17:42:21.528,-7.16,0.21,-19.48,5.06,-3.11,-7.2,0.0,-0.13,1.02,1000
17:42:21.541,-7.08,0.17,-19.56,4.02,-3.17,-6.65,-0.01,-0.12,1.02,1000
17:42:21.550,-6.92,0.14,-19.63,3.17,-2.99,-6.89,-0.0,-0.11,1.02,1000
17:42:21.576,-6.77,0.08,-19.71,2.8,-2.26,-6.77,-0.0,-0.11,1.01,1000
17:42:21.577,-6.67,0.02,-19.79,2.93,-0.43,-7.13,0.0,-0.11,1.01,1000
17:42:21.586,-6.6,-0.01,-19.87,3.54,1.89,-7.38,-0.0,-0.11,1.01,1000
17:42:21.594,-6.58,0.03,-19.95,4.09,3.96,-8.35,0.0,-0.12,1.01,1000
17:42:21.605,-6.56,0.05,-20.05,4.27,5.3,-8.35,-0.0,-0.12,1.0,1000
17:42:21.616,-6.56,0.16,-20.14,4.15,5.79,-7.99,-0.01,-0.12,1.0,1000
17:42:21.629,-6.54,0.32,-20.22,3.29,5.37,-7.5,-0.01,-0.12,1.0,1000
17:42:21.638,-6.56,0.48,-20.3,2.01,3.96,-6.77,-0.02,-0.12,1.01,1000
17:42:21.649,-6.54,0.74,-20.37,0.18,1.83,-5.79,-0.03,-0.11,1.0,1000
17:42:21.662,-6.49,0.97,-20.43,-2.01,-0.73,-4.7,-0.03,-0.11,1.02,1000
17:42:21.678,-6.42,1.04,-20.47,-3.96,-3.11,-2.93,-0.02,-0.11,1.02,1000
17:42:21.683,-6.48,0.96,-20.49,-5.43,-4.27,-0.79,-0.01,-0.12,1.02,1000
17:42:21.693,-6.58,0.84,-20.49,-5.98,-4.21,0.55,-0.01,-0.12,1.03,1000
17:42:21.704,-6.71,0.71,-20.48,-6.1,-2.8,1.34,-0.0,-0.13,1.03,1000
17:42:21.715,-6.87,0.58,-20.46,-4.94,-0.85,1.4,-0.0,-0.13,1.02,1000
17:42:21.726,-6.92,0.58,-20.45,-2.99,1.22,0.85,-0.01,-0.12,1.03,1000
17:42:21.737,-6.97,0.63,-20.45,-1.1,2.01,-0.06,-0.01,-0.13,1.03,1000
17:42:21.748,-7.13,0.58,-20.45,0.91,1.46,-0.43,-0.0,-0.14,1.03,1000
17:42:21.760,-7.22,0.42,-20.46,2.13,0.18,-0.24,0.01,-0.13,1.03,1000
17:42:21.785,-7.16,0.25,-20.46,1.52,-1.1,-0.24,0.01,-0.12,1.04,1000
17:42:21.786,-6.95,0.08,-20.46,-0.49,-2.07,0.18,0.01,-0.11,1.04,1000
17:42:21.792,-6.67,-0.02,-20.46,-3.9,-1.95,-0.37,0.01,-0.1,1.05,1000
17:42:21.803,-6.47,-0.14,-20.47,-7.8,-0.79,-1.1,0.01,-0.11,1.06,1000
17:42:21.814,-6.47,-0.26,-20.48,-10.98,1.52,-1.71,0.01,-0.12,1.07,1000
17:42:21.826,-6.63,-0.33,-20.5,-12.07,4.02,-2.26,0.01,-0.13,1.07,1000
17:42:21.836,-6.95,-0.32,-20.53,-11.4,6.95,-3.17,0.01,-0.15,1.07,1000
17:42:21.847,-7.37,-0.16,-20.58,-8.78,9.21,-4.21,-0.0,-0.16,1.07,1000
17:42:21.858,-7.78,0.07,-20.63,-4.39,10.85,-5.37,-0.01,-0.17,1.07,1000
17:42:21.873,-8.16,0.33,-20.7,1.04,11.34,-6.34,-0.02,-0.18,1.06,1000
17:42:21.884,-8.48,0.72,-20.77,6.77,10.18,-7.01,-0.05,-0.18,1.04,1000
17:42:21.894,-8.48,1.53,-20.86,12.32,5.67,-8.29,-0.09,-0.15,1.06,1000
17:42:21.902,-8.2,1.95,-20.95,16.34,-0.67,-7.2,-0.05,-0.15,1.06,1000
17:42:21.913,-8.34,1.88,-21.01,19.45,-6.16,-3.78,-0.03,-0.18,1.04,1000
17:42:21.926,-8.46,1.63,-21.02,20.43,-8.6,-0.55,-0.01,-0.16,1.03,1000
17:42:21.937,-8.34,1.34,-21.01,18.54,-7.74,1.71,-0.01,-0.16,1.02,1000
17:42:21.947,-8.29,1.02,-20.99,15.37,-4.7,2.07,0.0,-0.15,1.0,1000
17:42:21.957,-8.03,0.66,-20.97,12.07,-0.85,0.98,0.01,-0.12,0.99,1000
17:42:21.969,-7.61,0.42,-20.97,8.29,3.6,-1.34,0.0,-0.11,0.98,1000
17:42:21.988,-7.17,0.4,-21.01,4.94,6.83,-4.45,-0.01,-0.09,0.97,1000
17:42:21.991,-6.74,0.56,-21.08,2.2,8.23,-7.74,-0.02,-0.09,0.96,1000
17:42:22.001,-6.49,0.93,-21.18,0.3,6.95,-10.55,-0.03,-0.09,0.97,1000
17:42:22.018,-6.13,1.12,-21.3,-1.34,3.41,-11.1,-0.02,-0.09,0.98,1000
17:42:22.033,-6.08,1.15,-21.41,-2.26,-1.59,-9.51,-0.02,-0.11,0.98,1000
17:42:22.040,-6.15,1.12,-21.5,-1.89,-5.55,-7.13,-0.02,-0.1,0.98,1000
17:42:22.045,-6.13,1.07,-21.56,-1.65,-8.78,-4.7,-0.02,-0.1,1.0,1000
17:42:22.058,-6.11,1.01,-21.6,-1.16,-10.18,-2.74,-0.02,-0.11,0.99,1000
17:42:22.067,-6.1,0.89,-21.63,-0.12,-10.12,-1.52,-0.02,-0.1,1.0,1000
17:42:22.082,-5.93,0.8,-21.64,0.49,-8.96,-0.43,-0.01,-0.09,1.0,1000
17:42:22.092,-5.74,0.69,-21.63,0.79,-7.62,0.61,-0.01,-0.09,1.0,1000
17:42:22.103,-5.65,0.53,-21.62,0.43,-6.1,1.71,-0.0,-0.1,0.99,1000
17:42:22.111,-5.63,0.44,-21.6,-0.73,-4.88,2.56,-0.01,-0.1,1.0,1000
17:42:22.122,-5.63,0.36,-21.56,-2.74,-4.15,3.35,-0.01,-0.09,1.01,1000
17:42:22.133,-5.53,0.3,-21.53,-4.51,-4.21,3.6,-0.01,-0.09,1.01,1000
17:42:22.144,-5.5,0.23,-21.49,-6.71,-4.82,3.29,-0.0,-0.1,1.01,1000
17:42:22.155,-5.58,0.23,-21.45,-7.99,-5.85,2.44,-0.01,-0.1,1.02,1000
17:42:22.169,-5.65,0.28,-21.43,-8.54,-6.65,1.04,-0.01,-0.1,1.03,1000
17:42:22.195,-5.73,0.21,-21.43,-8.84,-7.68,0.18,-0.0,-0.11,1.03,1000
17:42:22.196,-5.93,0.08,-21.43,-8.41,-8.66,-0.91,0.0,-0.11,1.04,1000
17:42:22.201,-6.07,-0.1,-21.44,-7.8,-8.78,-1.4,0.01,-0.12,1.05,1000
17:42:22.211,-6.23,-0.31,-21.46,-7.01,-7.56,-1.65,0.01,-0.12,1.05,1000
17:42:22.221,-6.34,-0.5,-21.48,-6.34,-5.37,-2.07,0.02,-0.12,1.05,1000
17:42:22.232,-6.38,-0.61,-21.51,-4.82,-2.56,-2.56,0.01,-0.12,1.04,1000
17:42:22.245,-6.44,-0.55,-21.55,-3.41,0.24,-3.72,-0.0,-0.12,1.05,1000
17:42:22.256,-6.41,-0.39,-21.59,-2.26,2.32,-4.7,-0.0,-0.12,1.06,1000
17:42:22.265,-6.45,-0.22,-21.64,-1.59,3.17,-4.82,-0.0,-0.13,1.06,1000
17:42:22.276,-6.58,-0.14,-21.69,-1.04,3.6,-4.21,0.0,-0.13,1.05,1000
17:42:22.294,-6.69,-0.08,-21.73,-0.61,3.84,-3.41,-0.0,-0.13,1.05,1000
17:42:22.301,-6.69,0.06,-21.77,-0.67,4.02,-2.8,-0.01,-0.12,1.06,1000
17:42:22.309,-6.56,0.19,-21.79,-1.46,4.27,-2.26,-0.01,-0.11,1.06,1000
17:42:22.320,-6.38,0.32,-21.82,-2.38,5.0,-1.71,-0.01,-0.11,1.06,1000
17:42:22.331,-6.26,0.42,-21.84,-2.99,6.4,-1.95,-0.01,-0.11,1.06,1000
17:42:22.347,-6.28,0.51,-21.86,-2.62,8.35,-2.32,-0.01,-0.12,1.05,1000
17:42:22.354,-6.43,0.76,-21.9,-1.1,10.06,-3.6,-0.03,-0.13,1.04,1000
17:42:22.364,-6.68,1.04,-21.95,1.16,10.85,-5.0,-0.03,-0.14,1.04,1000
17:42:22.375,-6.97,1.29,-22.01,3.48,10.24,-5.73,-0.03,-0.15,1.02,1000
17:42:22.391,-7.29,1.53,-22.07,5.98,8.84,-5.91,-0.03,-0.16,1.01,1000
17:42:22.400,-7.44,1.66,-22.13,8.66,7.07,-5.18,-0.03,-0.14,1.0,1000
17:42:22.410,-7.47,1.81,-22.18,10.79,5.0,-4.82,-0.04,-0.13,0.99,1000
17:42:22.419,-7.29,1.96,-22.24,12.07,2.26,-4.57,-0.04,-0.12,0.99,1000
17:42:22.430,-6.93,2.06,-22.29,12.56,-0.85,-4.51,-0.04,-0.1,0.98,1000
17:42:22.443,-6.59,2.0,-22.34,11.95,-3.54,-4.02,-0.03,-0.09,0.98,1000
17:42:22.452,-6.23,1.74,-22.37,10.12,-5.67,-2.87,-0.01,-0.09,0.98,1000
17:42:22.465,-5.98,1.36,-22.4,7.13,-6.77,-1.65,0.0,-0.09,0.98,1000
17:42:22.474,-5.72,0.97,-22.41,3.23,-7.01,-0.49,0.01,-0.08,0.98,1000
17:42:22.487,-5.47,0.52,-22.4,-0.73,-6.65,0.73,0.02,-0.08,0.98,1000
17:42:22.497,-5.25,0.08,-22.39,-4.45,-5.67,1.46,0.02,-0.07,0.98,1000
17:42:22.508,-5.03,-0.33,-22.38,-7.68,-4.45,1.65,0.03,-0.06,0.99,1000
17:42:22.518,-4.98,-0.7,-22.36,-10.24,-2.99,1.4,0.03,-0.08,0.99,1000
17:42:22.529,-5.1,-1.04,-22.35,-11.95,-1.22,0.61,0.03,-0.09,1.0,1000
17:42:22.540,-5.21,-1.21,-22.35,-13.48,0.18,-0.61,0.03,-0.09,1.0,1000
17:42:22.552,-5.43,-1.25,-22.36,-14.57,0.91,-2.32,0.02,-0.1,1.01,1000
17:42:22.565,-5.63,-1.15,-22.4,-14.82,0.55,-4.33,0.01,-0.1,1.02,1000
17:42:22.573,-5.85,-1.09,-22.46,-14.27,-0.49,-5.24,0.02,-0.11,1.03,1000
17:42:22.584,-6.15,-1.07,-22.52,-13.29,-2.01,-6.04,0.01,-0.13,1.03,1000
17:42:22.600,-6.53,-1.14,-22.59,-11.83,-2.62,-6.22,0.02,-0.13,1.03,1000
17:42:22.606,-6.74,-1.18,-22.66,-9.76,-2.62,-6.59,0.02,-0.13,1.04,1000
17:42:22.617,-6.79,-1.05,-22.74,-8.23,-2.44,-7.62,0.0,-0.12,1.05,1000
17:42:22.628,-6.84,-0.94,-22.83,-6.71,-2.01,-7.99,0.01,-0.13,1.05,1000
17:42:22.639,-6.96,-0.86,-22.92,-5.3,-1.1,-8.17,0.01,-0.13,1.05,1000
17:42:22.654,-7.0,-0.77,-23.0,-4.02,-0.18,-7.62,0.01,-0.13,1.05,1000
17:42:22.663,-7.01,-0.62,-23.08,-3.35,0.73,-6.89,-0.0,-0.12,1.04,1000
17:42:22.673,-6.95,-0.43,-23.15,-2.99,1.71,-5.91,-0.01,-0.12,1.05,1000
17:42:22.683,-6.93,-0.24,-23.21,-3.35,2.8,-4.82,-0.01,-0.12,1.05,1000
17:42:22.707,-6.9,-0.04,-23.26,-4.51,4.51,-4.21,-0.01,-0.13,1.06,1000
17:42:22.707,-6.97,0.18,-23.3,-5.49,6.52,-3.96,-0.02,-0.13,1.05,1000
17:42:22.717,-7.13,0.46,-23.35,-6.16,8.6,-4.63,-0.02,-0.14,1.05,1000
17:42:22.727,-7.37,0.77,-23.4,-5.73,9.94,-5.67,-0.03,-0.15,1.05,1000
17:42:22.738,-7.68,1.11,-23.47,-3.78,10.06,-6.59,-0.03,-0.16,1.04,1000
17:42:22.752,-7.95,1.42,-23.54,-1.52,8.54,-7.32,-0.05,-0.17,1.06,1000
17:42:22.760,-8.07,1.78,-23.63,1.1,5.61,-7.38,-0.05,-0.15,1.06,1000
17:42:22.771,-8.07,2.03,-23.71,3.72,2.26,-7.07,-0.05,-0.15,1.05,1000
17:42:22.784,-8.09,2.13,-23.78,5.61,-0.79,-6.22,-0.04,-0.15,1.05,1000
17:42:22.794,-8.05,2.1,-23.84,7.32,-2.62,-4.82,-0.03,-0.15,1.05,1000
17:42:22.805,-8.12,2.08,-23.89,8.78,-3.29,-3.96,-0.04,-0.16,1.04,1000
17:42:22.815,-8.11,2.06,-23.93,9.51,-4.02,-3.66,-0.03,-0.15,1.03,1000
17:42:22.826,-8.12,1.87,-23.97,9.39,-4.94,-2.38,-0.02,-0.16,1.03,1000
17:42:22.837,-8.18,1.52,-23.98,9.7,-6.22,-0.85,-0.0,-0.15,1.01,1000
17:42:22.848,-8.12,1.09,-23.98,9.39,-7.68,1.22,0.0,-0.14,1.01,1000
17:42:22.859,-7.95,0.73,-23.96,8.17,-9.45,2.26,0.0,-0.13,1.0,1000
17:42:22.871,-7.5,0.45,-23.93,6.83,-11.77,2.32,0.0,-0.1,1.0,1000
17:42:22.883,-6.93,0.14,-23.91,4.94,-14.15,1.95,0.01,-0.09,1.0,1000
17:42:22.896,-6.46,-0.26,-23.89,3.23,-15.85,0.98,0.02,-0.08,0.98,1000
17:42:22.909,-6.03,-0.62,-23.89,0.61,-16.22,-0.49,0.02,-0.08,1.0,1000
17:42:22.914,-5.8,-0.96,-23.91,-3.05,-14.51,-2.38,0.03,-0.09,1.01,1000
17:42:22.928,-5.75,-1.3,-23.95,-7.2,-12.07,-4.21,0.04,-0.1,1.02,1000
17:42:22.937,-5.85,-1.7,-24.0,-10.61,-9.21,-4.39,0.06,-0.11,1.02,1000
17:42:22.947,-6.14,-2.08,-24.05,-12.13,-6.46,-4.02,0.06,-0.13,1.02,1000
17:42:22.963,-6.66,-2.47,-24.09,-12.2,-4.02,-3.23,0.07,-0.15,1.03,1000
17:42:22.973,-7.13,-2.76,-24.11,-10.98,-1.16,-2.13,0.07,-0.16,1.03,1000
17:42:23.000,-7.64,-2.96,-24.13,-9.27,2.2,-1.16,0.06,-0.16,1.03,1000
17:42:23.000,-7.95,-2.96,-24.14,-7.5,5.61,-0.91,0.05,-0.15,1.04,1000
17:42:23.021,-8.03,-2.71,-24.15,-6.46,8.66,-2.01,0.03,-0.14,1.04,1000
17:42:23.021,-7.96,-2.15,-24.19,-5.0,10.91,-4.33,0.0,-0.13,1.03,1000
17:42:23.024,-7.82,-1.57,-24.25,-3.78,11.34,-6.77,-0.01,-0.13,1.04,1000
17:42:23.035,-7.66,-1.14,-24.34,-2.68,9.88,-7.93,0.0,-0.13,1.04,1000
17:42:23.046,-7.64,-0.95,-24.42,-1.34,7.68,-7.62,0.02,-0.14,1.04,1000
17:42:23.057,-7.62,-0.91,-24.5,-0.79,6.46,-6.77,0.02,-0.14,1.05,1000
17:42:23.070,-7.6,-0.87,-24.57,-0.61,6.46,-6.16,0.02,-0.14,1.05,1000
17:42:23.079,-7.5,-0.66,-24.64,-0.18,6.95,-6.46,-0.0,-0.13,1.06,1000
17:42:23.091,-7.22,-0.25,-24.72,0.73,7.32,-8.05,-0.02,-0.11,1.06,1000
17:42:23.108,-6.91,0.11,-24.82,2.26,6.34,-9.21,-0.02,-0.11,1.06,1000
17:42:23.117,-6.69,0.32,-24.92,4.7,4.7,-9.09,-0.01,-0.12,1.06,1000
17:42:23.123,-6.64,0.38,-25.01,6.52,3.96,-8.11,-0.01,-0.13,1.06,1000
17:42:23.134,-6.65,0.4,-25.09,8.17,3.66,-6.65,-0.01,-0.13,1.05,1000
17:42:23.146,-6.72,0.52,-25.17,10.0,3.9,-6.34,-0.02,-0.14,1.04,1000
17:42:23.204,-7.11,0.77,-0.31,17.2,-1.4,-4.88,0.0,-0.14,0.99,1100
17:42:24.212,-5.11,-1.26,-1.79,-1.1,-3.17,4.88,0.37,-0.04,0.92,1140
17:42:24.228,-6.03,-1.17,-1.69,9.21,5.43,8.66,-0.36,-0.35,1.05,1140
17:42:24.238,-5.14,-0.51,-1.6,3.41,1.71,9.21,-0.21,0.33,0.92,1140
17:42:24.247,-3.7,-0.84,-1.52,-8.35,-6.28,6.1,0.24,0.19,0.89,1140
17:42:24.257,-3.54,-0.74,-1.44,2.07,-3.35,6.59,0.16,-0.4,1.01,1140
17:42:26.250,-0.26,-1.02,0.41,-1.1,0.24,-4.21,0.01,0.21,1.07,1260
17:42:27.272,0.6,-5.33,-0.24,-14.27,-1.34,-0.55,0.42,0.18,1.11,1260
17:42:29.303,-2.46,-3.52,-10.13,20.79,0.91,5.91,-0.64,-1.03,0.79,1260
17:42:29.306,-2.57,-3.1,-10.05,-17.99,7.01,5.73,0.14,-1.37,0.92,1260
17:42:29.319,-4.32,-2.29,-9.97,13.84,-12.2,0.43,-0.23,0.8,0.89,1260
17:42:29.332,-0.96,-2.96,-9.94,-22.74,4.15,-0.06,0.47,0.19,1.06,1260
17:42:30.297,-0.8,-4.17,-19.01,-1.95,8.66,-0.49,0.57,0.45,1.04,1260
17:42:30.306,-2.0,-2.16,-18.97,13.66,-18.78,2.38,0.04,0.14,1.01,1260
17:42:31.319,0.58,-4.46,-22.53,-9.09,-4.15,2.56,0.53,0.59,1.12,1260
17:42:32.341,-0.78,-1.59,-16.96,-8.78,-13.05,1.1,-0.22,-0.66,0.94,1260
17:42:32.354,0.09,-3.1,-16.93,-20.37,10.67,0.85,0.08,0.36,1.04,1260
17:42:32.363,-0.95,-1.73,-16.9,-7.93,-12.99,0.61,-0.14,-0.53,0.85,1260
17:42:32.376,-0.33,-2.38,-16.88,-8.72,4.39,-0.79,0.42,0.62,1.08,1260
17:42:33.352,2.49,-3.25,-15.89,-16.65,1.77,6.59,-0.03,1.41,1.07,1260
17:42:33.354,0.01,-3.24,-15.85,24.76,-3.35,3.78,0.03,-0.91,0.89,1260
17:42:33.370,1.17,-3.96,-15.82,-25.3,9.02,5.0,-0.23,0.57,1.09,1260
17:42:33.375,-1.04,-3.67,-15.79,-2.32,-5.24,1.59,-0.08,-0.85,0.94,1260
17:42:35.345,0.36,-2.93,-17.41,-10.61,-6.89,-5.98,0.19,1.38,0.98,1260
17:42:37.372,-3.51,-2.08,-18.98,25.73,-7.07,-4.27,-0.03,-0.55,0.74,1260
17:42:38.395,-0.95,-3.56,-22.8,8.35,-8.6,1.65,0.28,0.51,1.02,1260
17:42:38.403,-3.23,-3.55,-22.75,35.0,4.82,1.04,0.18,-0.95,0.93,1260
17:42:38.415,-3.93,-3.71,-22.7,38.17,-2.32,2.38,0.4,0.83,0.94,1260
17:42:38.424,-1.95,-3.62,-22.63,13.96,-5.98,7.93,-0.0,-0.14,1.1,1260
17:42:39.394,-1.62,-4.54,-21.84,0.0,7.68,-9.27,0.84,0.29,1.14,1260
17:42:40.418,-2.29,-4.17,-19.35,-7.8,9.39,3.84,0.96,0.67,1.1,1260
17:42:40.418,-4.59,-2.93,-19.29,30.3,-7.13,9.57,-0.49,-0.15,1.0,1260
17:42:40.426,-1.42,-4.09,-19.23,-19.02,6.34,4.7,0.91,0.7,1.27,1260
17:42:40.437,-4.88,-3.78,-19.18,29.82,12.5,5.37,0.05,-1.33,0.9,1260
17:42:40.448,-2.83,-3.24,-19.14,10.43,-5.3,4.02,0.24,1.14,1.18,1260
17:42:43.420,-0.81,-3.17,-19.82,17.07,-2.32,6.83,0.42,-0.69,0.91,1260
17:42:44.452,-1.0,-2.77,-19.31,-0.06,5.79,-4.63,0.71,0.74,1.05,1260
17:42:45.464,-1.26,-0.24,-17.76,-23.35,-0.18,-1.95,-0.38,0.05,1.18,1260
17:42:45.475,-2.05,-0.19,-17.77,4.09,-7.38,-0.73,0.62,0.53,1.0,1260
17:42:45.486,-1.7,-0.13,-17.79,-6.04,1.16,1.46,-0.54,-0.02,1.03,1260
17:42:46.499,-4.0,0.54,-19.31,-11.95,-0.49,6.83,-0.19,-1.55,1.05,1260
17:42:47.510,-1.53,-0.74,-25.03,-3.29,-6.52,9.45,0.08,-0.4,0.99,1260
17:42:48.523,-0.13,-0.06,-22.65,-1.71,-8.11,-7.44,0.16,1.57,1.12,1260
17:42:51.547,-1.23,0.53,-22.23,-22.32,2.68,2.26,0.55,0.3,1.12,1260
17:42:52.559,1.14,-0.86,-20.46,-28.23,-8.6,-3.29,0.3,0.86,1.16,1260
17:42:53.572,-2.55,-1.67,-21.6,-7.68,7.26,-3.05,0.75,-0.05,1.26,1260
17:42:55.595,-3.2,-0.03,-20.76,8.54,1.59,2.74,0.22,0.36,0.84,1260
17:42:57.617,-2.17,-0.58,-23.87,-9.94,6.16,11.52,0.1,-0.73,0.98,1260
17:42:58.631,-1.4,-0.24,-21.87,3.66,-13.17,10.0,-0.07,1.23,1.01,1260
17:42:58.646,-2.85,0.21,-21.76,19.27,4.45,8.11,-0.32,-1.4,0.71,1260
17:42:58.653,-0.17,-0.03,-21.64,3.05,0.55,8.17,0.03,0.87,1.01,1260
17:42:58.663,-0.4,0.08,-21.5,-1.52,-1.1,13.54,-0.61,-0.68,1.14,1260
17:42:58.675,-1.17,0.7,-21.37,5.06,-14.7,15.43,0.37,1.07,1.04,1260
17:43:00.645,0.69,-0.72,-25.5,-9.51,4.63,-12.56,-0.18,0.14,1.05,1260
17:43:04.694,2.87,4.63,-12.03,8.72,1.16,36.34,0.14,0.32,0.99,1000
17:43:04.694,5.63,3.22,-11.68,-15.49,12.74,27.99,0.14,0.38,0.75,1000
17:43:04.702,8.55,1.91,-11.4,-37.62,21.1,23.35,0.15,0.3,0.51,1000
17:43:04.715,11.95,1.07,-11.19,-51.04,18.05,19.02,0.1,0.12,0.14,1000
17:43:04.724,13.11,1.29,-11.02,-56.28,12.38,13.17,0.15,0.14,0.14,1000
17:43:04.742,11.15,1.85,-10.9,-54.88,-0.55,9.57,0.24,0.13,-0.02,1000
17:43:04.746,8.37,0.6,-10.82,-47.01,-5.98,7.56,0.18,0.25,0.01,1000
17:43:04.768,7.76,-0.56,-10.78,-42.38,-12.01,4.27,0.12,0.31,0.06,1000
17:43:04.768,6.37,-0.56,-10.77,-33.96,-25.37,0.43,0.13,0.14,0.11,1000
17:43:04.784,3.87,-1.88,-10.79,-32.74,-34.33,-3.54,0.13,0.16,0.02,1000
17:43:04.796,1.13,-1.69,-10.84,-32.56,-40.06,-7.5,0.09,-0.07,0.18,1000
17:43:04.806,2.68,0.23,-10.91,-44.27,-53.23,-8.66,-0.08,-0.2,0.1,1000
17:43:04.812,1.81,0.39,-11.02,-55.79,-55.67,-9.88,-0.09,-0.15,0.18,1000
17:43:04.826,5.63,-0.66,-11.15,-65.37,-45.85,-12.01,-0.09,0.01,0.14,1000
17:43:04.838,6.34,-1.91,-11.32,-62.38,-47.38,-16.59,-0.11,0.08,0.16,1000
17:43:04.845,6.54,-4.7,-11.5,-57.01,-51.04,-18.9,0.01,0.03,0.02,1000
17:43:04.856,7.29,-3.79,-11.72,-62.26,-55.79,-21.22,0.09,0.1,0.17,1000
17:43:04.867,7.47,-1.16,-11.97,-63.48,-57.8,-22.26,-0.03,0.08,0.11,1000
17:43:04.885,5.35,-1.01,-12.25,-61.1,-57.32,-25.55,-0.08,-0.01,0.11,1000
17:43:04.892,4.23,1.13,-12.54,-64.33,-59.02,-29.21,-0.01,-0.03,0.12,1000
17:43:04.902,3.78,2.23,-12.88,-67.93,-61.89,-30.91,-0.01,0.04,0.16,1000
17:43:04.911,3.13,1.02,-13.24,-69.09,-61.1,-33.84,-0.14,-0.06,0.15,1000
17:43:04.922,3.75,-0.27,-13.62,-73.6,-60.61,-35.98,0.07,-0.01,0.17,1000
17:43:04.933,5.8,1.37,-14.04,-77.56,-59.7,-38.84,-0.03,0.07,0.16,1000
17:43:04.945,3.51,-0.11,-14.48,-76.28,-55.49,-40.98,-0.11,-0.1,0.16,1000
17:43:04.957,4.37,-1.66,-14.94,-84.88,-51.4,-43.11,0.21,0.09,0.18,1000
17:43:04.966,3.85,-2.97,-15.42,-89.02,-45.12,-43.96,-0.03,0.01,0.11,1000
17:43:05.003,1.94,-3.59,-15.87,-91.22,-36.52,-46.4,-0.03,-0.07,0.24,1000
17:43:05.003,1.62,-3.51,-16.42,-97.32,-35.91,-46.83,0.02,0.01,0.09,1000
17:43:05.003,2.32,-3.9,-16.94,-99.09,-20.12,-47.74,-0.02,0.08,0.23,1000
17:43:05.010,1.65,-2.94,-17.47,-104.82,-20.24,-48.9,0.03,-0.05,0.16,1000
17:43:05.021,2.59,-3.16,-18.02,-103.66,-11.83,-49.94,0.02,0.11,0.18,1000
17:43:05.032,2.34,-4.58,-18.56,-107.74,-2.26,-50.73,0.05,0.02,0.12,1000
17:43:05.043,0.02,-3.26,-19.13,-109.21,-1.28,-50.73,-0.06,-0.03,0.19,1000
17:43:05.056,-1.46,-2.31,-19.69,-107.44,0.49,-52.44,0.01,0.0,0.09,1000
17:43:05.065,-2.51,-2.1,-20.26,-111.46,5.0,-51.1,0.11,-0.05,0.26,1000
17:43:05.077,-2.4,-1.34,-20.84,-110.12,5.37,-52.2,-0.02,0.0,0.06,1000
17:43:05.089,-3.58,-0.17,-21.41,-108.05,2.38,-51.1,-0.02,0.04,0.27,1000
17:43:05.103,-4.86,0.24,-21.99,-106.52,-4.76,-53.84,0.03,-0.03,0.13,1000
17:43:05.110,-5.17,-2.67,-22.57,-105.18,-2.93,-52.5,0.09,0.04,0.24,1000
17:43:05.120,-5.58,-3.61,-23.14,-101.59,-10.24,-51.1,-0.01,0.0,0.1,1000
17:43:05.135,-6.19,-4.7,-23.7,-97.93,-15.91,-49.63,0.02,-0.03,0.33,1000
17:43:05.145,-6.85,-6.51,-24.27,-96.59,-14.63,-52.32,0.11,-0.08,0.3,1000
17:43:05.155,-13.51,-6.83,-24.79,-93.17,-18.48,-45.0,0.42,-1.65,0.49,1000
17:43:05.166,-15.83,-14.2,-25.27,579.57,-782.5,-113.35,16.0,-16.0,16.0,1000
17:43:05.179,-9.81,-5.84,-25.23,89.39,-421.71,1.22,-16.0,7.9,-0.36,1000
17:43:05.187,-5.63,-6.09,-24.46,126.34,136.1,59.21,-5.64,0.62,5.76,1000
17:43:05.201,-2.73,-7.16,-23.7,-46.34,115.0,91.46,3.11,2.21,-14.07,1000
17:43:05.210,-2.33,-6.02,-22.99,203.6,179.63,68.72,4.4,-1.7,13.31,1000
17:43:05.219,-0.76,-3.63,-22.36,70.3,-274.45,60.61,2.84,0.1,-12.82,1000
17:43:05.230,0.82,-4.06,-21.74,178.35,-139.82,80.43,2.57,-1.56,12.89,1000
17:43:05.242,0.77,-2.16,-21.0,135.98,-223.78,59.76,-1.47,4.26,-11.67,1000
17:43:05.252,0.77,-2.49,-20.45,99.88,-266.16,49.63,2.47,-0.93,9.01,1000
17:43:05.264,2.32,-1.01,-19.91,300.24,101.59,55.98,1.22,-2.3,-7.5,1000
17:43:05.274,1.58,-1.35,-19.4,227.2,-47.74,39.7,-1.07,-0.18,5.43,1000
17:43:05.285,1.82,-2.0,-18.93,221.71,-28.6,42.68,-1.39,2.33,-3.32,1000
17:43:05.301,6.95,-1.83,-18.51,181.83,45.37,37.44,-0.78,-1.41,3.77,1000
17:43:05.307,6.75,0.42,-18.15,194.45,-66.65,29.7,0.48,-1.62,-3.02,1000
17:43:05.318,6.0,-1.86,-17.83,160.79,-1.65,32.32,2.08,-0.2,2.97,1000
17:43:05.329,7.04,-0.22,-17.5,250.43,74.63,30.12,-1.77,1.38,-1.19,1000
17:43:05.340,9.6,3.03,-17.19,125.06,-83.66,31.59,-2.21,1.18,-0.26,1000
17:43:05.354,8.63,1.4,-16.9,229.7,26.65,31.52,1.41,-0.69,0.8,1000
17:43:05.362,8.21,-0.86,-16.62,201.28,20.0,28.96,1.63,-0.74,-1.68,1000
17:43:05.376,7.65,-0.21,-16.36,242.56,68.78,24.82,-0.61,0.01,1.88,1000
17:43:05.406,8.95,0.59,-16.11,229.94,43.54,19.39,-1.09,0.68,-1.42,1000
17:43:05.408,8.98,1.2,-15.85,179.39,-25.91,22.2,0.4,-0.26,1.05,1000
17:43:05.408,8.2,0.98,-15.59,193.6,10.61,24.45,0.32,-0.17,-0.89,1000
17:43:05.419,4.72,1.69,-15.3,216.77,46.04,28.41,-0.06,0.24,0.82,1000
17:43:05.428,4.5,1.84,-14.97,210.3,35.55,31.28,-0.22,0.04,-0.79,1000
17:43:05.439,6.58,-0.2,-14.61,200.24,27.56,38.35,0.69,-0.17,0.91,1000
17:43:05.451,14.6,-5.83,-14.15,-31.28,231.4,88.96,5.19,4.55,1.89,1000
17:43:05.461,15.58,-5.21,-14.0,-300.3,517.62,-17.01,1.93,2.97,-0.32,1000
17:43:05.472,14.07,-0.02,-14.2,-415.67,324.45,-56.04,-4.69,4.61,13.41,1000
17:43:05.489,16.3,2.69,-14.0,-238.54,291.28,47.87,2.23,1.44,-1.74,1000
17:43:05.509,15.13,5.3,-13.36,72.87,13.9,67.74,0.25,-0.79,6.79,1000
17:43:05.509,9.85,3.94,-12.69,224.57,131.65,66.89,2.36,0.84,-4.94,1000
17:43:05.516,7.39,4.25,-12.11,167.2,126.4,58.29,-0.81,0.23,4.37,1000
17:43:05.527,4.5,3.62,-11.59,173.29,67.74,47.2,-0.95,0.64,-3.98,1000
17:43:05.539,4.33,4.78,-11.06,132.13,90.06,46.89,0.77,-1.32,3.31,1000
17:43:05.551,1.93,4.67,-10.52,174.27,115.98,49.63,-0.59,-0.35,-2.11,1000
17:43:05.560,4.47,8.46,-9.98,47.68,29.45,54.21,-0.73,0.19,1.1,1000
17:43:05.572,2.78,4.57,-9.43,125.61,124.88,50.98,0.85,-0.57,0.03,1000
17:43:05.582,0.82,4.11,-8.9,108.96,123.17,48.11,-0.11,-0.17,-0.09,1000
17:43:05.615,1.22,5.33,-8.39,126.22,131.71,48.17,-0.78,0.37,0.73,1000
17:43:05.615,3.24,5.27,-7.95,99.82,110.3,43.6,-0.55,0.68,-0.85,1000
17:43:05.616,3.71,7.37,-7.4,193.41,113.11,56.71,-0.12,0.79,3.44,1000
17:43:05.627,8.89,8.67,-7.11,165.67,81.83,30.73,0.25,0.59,-0.98,1000
17:43:05.637,12.34,10.22,-6.77,165.12,71.95,33.23,-0.59,0.32,2.32,1000
17:43:05.648,20.34,9.04,-7.03,33.11,246.59,-45.61,-0.23,3.08,2.26,1000
17:43:05.661,21.55,7.43,-7.46,-86.4,124.76,-42.87,0.77,1.04,0.91,1000
17:43:05.675,27.63,6.62,-7.95,-90.91,56.28,-37.44,-0.71,1.2,0.62,1000
17:43:05.681,29.98,7.93,-8.16,-60.91,-10.91,-12.93,-0.44,1.02,0.33,1000
17:43:05.692,30.4,9.82,-8.2,-21.16,12.26,2.5,-0.31,0.35,0.81,1000
17:43:05.705,31.31,12.71,-8.19,4.94,17.32,3.66,-0.23,0.33,0.3,1000
17:43:05.717,31.63,14.09,-8.11,33.11,29.45,8.41,-0.25,0.31,0.47,1000
17:43:05.726,32.19,15.79,-7.96,44.63,43.05,21.04,-0.32,0.38,0.74,1000
17:43:05.738,32.64,17.08,-7.7,34.02,46.46,28.35,-0.49,0.51,0.94,1000
17:43:05.747,33.56,17.66,-7.34,-6.89,16.46,37.62,-0.38,0.8,1.23,1000
17:43:05.759,32.96,17.95,-6.87,-20.67,-3.41,43.96,-0.35,0.12,0.53,1000
17:43:05.769,32.07,18.06,-6.37,-12.99,-11.04,47.2,-0.39,0.76,1.0,1000
17:43:05.780,32.67,17.47,-5.82,3.9,-21.83,50.06,-0.34,0.51,0.64,1000
17:43:05.794,32.37,17.33,-5.24,30.73,-32.68,53.96,-0.34,0.31,0.6,1000
17:43:05.814,33.55,15.75,-4.7,25.43,-29.15,44.63,-0.16,0.88,1.0,1000
17:43:05.815,35.34,12.56,-4.26,-5.18,-38.6,33.54,-0.1,0.89,0.77,1000
17:43:05.824,36.62,9.47,-3.98,-26.71,-47.07,18.84,-0.04,0.68,0.9,1000
17:43:05.836,36.52,6.39,-3.8,-23.05,-43.9,13.66,-0.0,0.62,0.82,1000
17:43:05.846,35.51,3.6,-3.68,-10.0,-34.21,10.37,0.14,0.46,0.87,1000
17:43:05.857,34.5,1.18,-3.58,-0.98,-23.9,9.57,0.1,0.46,0.76,1000
17:43:05.868,33.77,-0.43,-3.48,-4.33,-17.99,6.71,-0.02,0.6,0.9,1000
17:43:05.880,32.99,-2.09,-3.42,-3.11,-10.43,4.88,0.15,0.44,0.89,1000
17:43:05.890,32.35,-3.33,-3.38,-4.15,-5.43,3.66,0.09,0.57,0.87,1000
17:43:05.906,31.91,-3.86,-3.35,-7.74,-1.95,1.1,0.06,0.54,0.88,1000
17:43:05.920,31.39,-4.3,-3.36,-4.02,2.44,-2.56,0.08,0.45,0.87,1000
17:43:05.923,30.99,-4.26,-3.39,-0.98,7.56,-4.33,0.08,0.48,0.88,1000
17:43:05.934,30.7,-4.19,-3.46,4.88,13.6,-7.2,0.02,0.49,0.87,1000
17:43:05.945,30.59,-3.73,-3.56,9.57,17.5,-10.12,0.0,0.54,0.87,1000
17:43:05.956,30.54,-3.42,-3.69,14.94,21.34,-13.6,0.03,0.47,0.87,1000
17:43:05.975,30.7,-3.09,-3.87,18.17,24.45,-18.41,0.03,0.56,0.87,1000
17:43:05.979,30.98,-2.89,-4.08,18.35,30.73,-23.17,0.04,0.57,0.87,1000
17:43:05.991,31.77,-2.3,-4.34,6.28,27.44,-19.51,-0.0,0.66,0.94,1000
17:43:06.000,33.23,-1.39,-4.54,-9.02,27.01,-15.37,0.0,0.72,0.82,1000
17:43:06.028,34.31,-0.02,-4.66,-13.84,26.65,-8.66,-0.11,0.61,0.82,1000
17:43:06.029,34.43,1.9,-4.74,-4.82,26.83,-6.65,-0.16,0.54,0.81,1000
17:43:06.033,34.13,3.5,-4.81,6.22,23.48,-5.73,-0.18,0.52,0.81,1000
17:43:06.044,33.77,5.11,-4.87,7.26,16.65,-4.76,-0.2,0.55,0.85,1000
17:43:06.055,33.56,6.21,-4.9,0.49,7.13,-2.13,-0.2,0.59,0.87,1000
17:43:06.066,33.37,7.22,-4.92,-6.59,-2.8,-0.55,-0.21,0.59,0.86,1000
17:43:06.077,33.09,8.2,-4.91,-3.72,-10.18,1.77,-0.23,0.52,0.81,1000
17:43:06.088,33.32,8.97,-4.88,3.05,-17.2,2.2,-0.2,0.6,0.83,1000
17:43:06.099,33.32,8.94,-4.84,3.72,-23.72,5.61,-0.19,0.53,0.83,1000
17:43:06.112,33.08,8.51,-4.78,0.49,-30.61,5.24,-0.15,0.57,0.89,1000
17:43:06.124,33.0,7.65,-4.71,-2.8,-34.88,7.5,-0.11,0.55,0.87,1000
17:43:06.132,32.89,6.6,-4.63,-1.4,-36.46,7.2,-0.1,0.55,0.83,1000
17:43:06.143,33.04,5.18,-4.55,3.23,-34.09,6.77,-0.01,0.53,0.86,1000
17:43:06.154,33.1,3.32,-4.48,5.12,-29.94,5.55,0.03,0.57,0.85,1000
17:43:06.168,33.1,1.64,-4.43,2.07,-25.91,2.8,0.07,0.56,0.87,1000
17:43:06.176,33.14,-0.08,-4.43,-1.83,-20.12,-1.52,0.09,0.6,0.87,1000
17:43:06.187,33.44,-1.33,-4.47,-5.79,-15.67,-5.0,0.03,0.61,0.84,1000
17:43:06.198,33.93,-2.02,-4.54,-8.23,-9.21,-8.17,0.03,0.63,0.84,1000
17:43:06.228,34.25,-2.45,-4.65,-5.12,-2.5,-10.37,0.03,0.58,0.82,1000
17:43:06.228,34.24,-2.79,-4.77,-2.07,1.59,-11.95,0.05,0.58,0.85,1000
17:43:06.231,34.25,-2.65,-4.9,0.85,7.93,-14.02,0.03,0.59,0.82,1000
17:43:06.244,34.26,-1.92,-5.08,2.26,10.3,-16.1,-0.04,0.55,0.85,1000
17:43:06.253,34.3,-1.01,-5.27,1.83,10.37,-17.44,-0.07,0.6,0.86,1000
17:43:06.266,34.26,0.23,-5.46,-0.06,8.48,-17.87,-0.12,0.61,0.86,1000
17:43:06.275,34.03,1.21,-5.66,-3.78,5.12,-16.59,-0.07,0.53,0.89,1000
17:43:06.286,33.67,1.56,-5.83,-8.23,4.02,-14.63,-0.03,0.58,0.88,1000
17:43:06.297,33.7,1.08,-5.99,-15.73,7.5,-14.94,0.04,0.65,0.9,1000
17:43:06.309,34.49,0.11,-6.16,-25.79,13.78,-16.22,0.04,0.73,0.89,1000
17:43:06.324,36.28,-0.21,-6.36,-44.76,17.2,-19.27,-0.01,0.98,0.88,1000
17:43:06.331,37.46,0.24,-6.6,-87.56,26.77,-25.61,-0.17,1.07,1.23,1000
17:43:06.341,37.79,1.75,-6.94,-146.04,34.09,-33.96,-0.21,1.07,1.15,1000
17:43:06.354,36.4,4.29,-7.35,-200.37,44.57,-40.43,-0.51,1.01,1.21,1000
17:43:06.363,34.6,7.49,-7.83,-247.38,50.79,-46.52,-0.36,0.76,1.05,1000
17:43:06.374,30.78,9.42,-8.38,-282.01,55.49,-52.07,-0.17,0.5,1.03,1000
17:43:06.385,26.16,11.44,-9.0,-306.28,60.79,-58.11,-0.26,0.33,1.05,1000
17:43:06.396,20.64,12.49,-9.67,-320.18,66.28,-62.32,-0.26,0.26,1.1,1000
17:43:06.407,14.73,13.16,-10.37,-323.78,74.63,-64.27,-0.23,0.11,1.28,1000
17:43:06.428,8.21,13.21,-11.07,-314.76,85.06,-63.9,-0.24,-0.08,1.33,1000
17:43:06.434,1.55,13.4,-11.77,-296.16,94.27,-62.01,-0.29,-0.27,1.47,1000
17:43:06.441,-4.54,13.98,-12.43,-267.68,102.38,-59.21,-0.31,-0.33,1.35,1000
17:43:06.451,-9.32,14.73,-13.06,-240.79,106.77,-55.61,-0.34,-0.34,1.31,1000
17:43:06.462,-12.19,16.1,-13.66,-213.11,109.09,-53.9,-0.45,-0.29,1.21,1000
17:43:06.475,-12.94,18.23,-14.24,-189.51,102.44,-51.89,-0.56,-0.08,1.33,1000
17:43:06.484,-12.45,20.36,-14.81,-178.84,90.06,-52.01,-0.51,0.01,1.12,1000
17:43:06.496,-10.93,21.89,-15.39,-172.74,69.51,-54.94,-0.55,0.02,1.29,1000
17:43:06.506,-9.77,23.13,-16.01,-164.51,48.17,-56.83,-0.53,-0.01,1.13,1000
17:43:06.529,-8.79,23.6,-16.65,-153.72,29.09,-60.12,-0.49,0.02,1.19,1000
17:43:06.530,-8.64,23.57,-17.32,-138.17,13.35,-61.71,-0.44,-0.08,1.17,1000
17:43:06.539,-9.37,22.74,-18.01,-115.37,-2.2,-62.07,-0.43,-0.21,1.22,1000
17:43:06.550,-10.64,21.51,-18.69,-84.76,-9.88,-60.73,-0.35,-0.25,1.17,1000
17:43:06.562,-11.91,20.09,-19.34,-54.33,-17.32,-58.35,-0.35,-0.31,1.19,1000
17:43:06.572,-12.91,18.99,-19.96,-20.85,-24.09,-54.51,-0.36,-0.35,1.19,1000
17:43:06.583,-13.27,17.94,-20.54,10.12,-31.4,-50.61,-0.36,-0.32,1.23,1000
17:43:06.594,-12.99,17.25,-21.07,34.94,-38.66,-47.13,-0.39,-0.29,1.27,1000
17:43:06.606,-11.81,16.74,-21.57,53.9,-47.99,-43.66,-0.43,-0.22,1.3,1000
17:43:06.616,-10.22,16.44,-22.03,67.01,-56.95,-40.91,-0.44,-0.18,1.33,1000
17:43:06.637,-8.44,16.01,-22.46,77.13,-64.94,-38.48,-0.41,-0.13,1.32,1000
17:43:06.639,-6.77,15.4,-22.87,83.48,-70.43,-35.91,-0.38,-0.1,1.33,1000
17:43:06.649,-5.26,14.41,-23.25,90.37,-73.41,-33.72,-0.31,-0.09,1.32,1000
17:43:06.660,-4.32,13.53,-23.6,97.2,-71.52,-30.3,-0.3,-0.19,1.34,1000
17:43:06.671,-3.44,12.38,-23.92,100.43,-67.56,-27.74,-0.26,-0.09,1.2,1000
17:43:06.682,-3.13,11.47,-24.19,112.07,-62.2,-23.29,-0.28,-0.22,1.44,1000
17:43:06.693,-3.09,10.83,-24.42,123.84,-56.1,-19.33,-0.25,-0.23,1.17,1000
17:43:06.704,-2.55,10.16,-24.61,131.83,-48.78,-14.27,-0.21,0.03,1.29,1000
17:43:06.718,-2.07,9.86,-24.75,134.21,-40.49,-10.98,-0.29,-0.23,1.29,1000
17:43:06.736,-1.38,9.53,-24.85,137.26,-33.48,-7.74,-0.22,-0.16,1.34,1000
17:43:06.743,-0.17,9.32,-24.92,130.73,-23.23,-5.06,-0.21,0.03,1.3,1000
17:43:06.748,1.13,9.3,-24.96,122.8,-17.2,-3.48,-0.26,-0.0,1.26,1000
17:43:06.759,2.53,9.43,-24.99,111.1,-10.61,-1.89,-0.22,0.1,1.24,1000
17:43:06.770,3.67,9.58,-25.0,100.43,-4.02,-0.61,-0.23,0.0,1.17,1000
17:43:06.783,4.5,9.58,-25.0,90.98,2.26,-0.06,-0.21,0.04,1.19,1000
17:43:06.794,4.97,9.57,-25.0,80.12,7.87,0.98,-0.2,0.09,1.18,1000
17:43:06.803,5.18,9.46,-24.98,71.16,13.23,1.4,-0.19,0.05,1.2,1000
17:43:06.817,5.19,9.39,-24.97,63.35,18.72,1.77,-0.17,0.04,1.17,1000
17:43:06.839,5.25,9.32,-24.94,55.06,24.02,1.89,-0.16,0.07,1.19,1000
17:43:06.843,5.31,9.38,-24.92,46.83,27.68,1.59,-0.18,0.08,1.17,1000
17:43:06.847,5.3,9.6,-24.91,39.09,28.72,1.16,-0.19,0.06,1.13,1000
17:43:06.858,4.98,9.91,-24.9,32.13,28.17,0.55,-0.19,-0.0,1.12,1000
17:43:06.869,4.48,10.07,-24.9,27.44,29.02,-0.85,-0.21,0.05,1.11,1000
17:43:06.881,4.42,10.17,-24.9,24.39,27.44,-0.61,-0.17,0.04,1.11,1000
17:43:06.891,4.09,10.05,-24.91,23.9,24.63,-1.52,-0.2,0.05,1.13,1000
17:43:06.903,4.1,9.78,-24.94,20.55,21.22,-3.41,-0.16,0.08,1.08,1000
17:43:06.913,4.42,9.47,-24.99,17.13,16.77,-5.12,-0.15,0.14,1.16,1000
17:43:06.924,4.93,9.28,-25.06,12.68,12.38,-7.5,-0.15,0.16,1.04,1000
17:43:06.940,5.34,8.91,-25.16,9.02,7.07,-10.18,-0.13,0.13,1.06,1000
17:43:06.946,5.59,8.61,-25.29,4.15,3.29,-12.74,-0.12,0.12,0.98,1000
17:43:06.957,5.54,8.13,-25.44,-1.22,0.18,-15.06,-0.11,0.11,1.02,1000
17:43:06.968,5.23,7.61,-25.62,-6.4,0.49,-17.07,-0.11,0.07,0.99,1000
17:43:06.979,4.58,7.14,-25.82,-11.65,1.4,-18.6,-0.11,0.04,1.03,1000
17:43:06.993,3.91,6.79,-26.03,-17.87,3.05,-19.45,-0.1,0.05,0.97,1000
17:43:07.001,3.19,6.68,-26.25,-23.9,4.33,-20.06,-0.12,0.02,0.97,1000
17:43:07.012,2.31,6.84,-26.47,-28.6,4.45,-20.43,-0.13,0.0,0.91,1000
17:43:07.023,1.34,7.12,-26.69,-31.95,3.54,-20.43,-0.14,-0.01,0.91,1000
17:43:07.044,0.28,7.53,-26.91,-33.41,1.34,-19.76,-0.16,-0.04,0.9,1000
17:43:07.045,-0.82,7.88,-27.13,-33.35,-1.59,-19.09,-0.15,-0.06,0.9,1000
17:43:07.056,-1.91,8.14,-27.33,-31.95,-3.66,-18.54,-0.16,-0.05,0.96,1000
17:43:07.067,-2.53,8.17,-27.53,-31.34,-5.12,-17.74,-0.15,-0.04,0.96,1000
17:43:07.079,-2.99,8.08,-27.73,-30.43,-6.46,-17.62,-0.14,-0.04,0.94,1000
17:43:07.097,-3.22,7.94,-27.92,-29.39,-8.23,-17.68,-0.12,-0.02,0.89,1000
17:43:07.102,-3.28,7.76,-28.11,-27.8,-11.4,-17.93,-0.11,-0.02,0.85,1000
17:43:07.117,-3.36,7.54,-28.31,-25.12,-14.27,-17.87,-0.11,-0.03,0.81,1000
17:43:07.124,-3.52,7.16,-28.51,-21.71,-16.22,-18.17,-0.09,-0.04,0.82,1000
17:43:07.145,-3.76,6.61,-28.71,-17.13,-16.71,-18.05,-0.08,-0.06,0.83,1000
17:43:07.146,-4.12,6.02,-28.91,-11.83,-15.43,-18.11,-0.08,-0.07,0.85,1000
17:43:07.155,-4.52,5.55,-29.1,-6.65,-13.11,-17.8,-0.07,-0.08,0.85,1000
17:43:07.166,-4.89,5.14,-29.3,-0.98,-10.55,-17.44,-0.07,-0.08,0.84,1000
17:43:07.177,-5.08,4.94,-29.49,3.78,-8.72,-16.95,-0.08,-0.08,0.83,1000
17:43:07.189,-5.01,5.0,-29.65,7.8,-7.99,-16.65,-0.09,-0.06,0.81,1000
17:43:07.199,-4.61,5.21,-29.85,10.79,-7.38,-16.77,-0.1,-0.04,0.81,1000
17:43:07.210,-4.07,5.55,-30.04,11.71,-7.56,-16.83,-0.11,-0.03,0.79,1000
17:43:07.221,-3.53,5.96,-30.23,11.77,-8.84,-17.26,-0.11,-0.02,0.77,1000
17:43:07.248,-3.1,6.32,-30.42,10.91,-10.55,-17.38,-0.11,-0.02,0.76,1000
17:43:07.253,-2.9,6.52,-30.61,9.57,-12.5,-17.38,-0.11,-0.03,0.75,1000
17:43:07.255,-2.88,6.54,-30.8,7.8,-13.78,-16.59,-0.09,-0.04,0.76,1000
17:43:07.270,-3.0,6.36,-30.97,5.79,-14.21,-16.04,-0.08,-0.04,0.76,1000
17:43:07.276,-3.16,6.01,-31.15,3.35,-14.27,-15.06,-0.07,-0.05,0.75,1000
17:43:07.287,-3.38,5.59,-31.31,1.1,-14.09,-14.27,-0.06,-0.05,0.72,1000
17:43:07.300,-3.69,5.23,-31.46,-0.79,-13.66,-13.29,-0.06,-0.05,0.68,1000
17:43:07.311,-4.0,4.87,-31.6,-2.8,-13.35,-12.2,-0.05,-0.05,0.68,1000
17:43:07.323,-4.26,4.46,-31.72,-5.55,-13.17,-10.98,-0.04,-0.05,0.69,1000
17:43:07.334,-4.42,4.04,-31.83,-8.78,-12.01,-9.88,-0.04,-0.05,0.69,1000
17:43:07.346,-4.52,3.59,-31.94,-12.01,-10.12,-8.72,-0.03,-0.05,0.69,1000
17:43:07.354,-4.52,3.19,-32.03,-16.04,-7.56,-7.8,-0.03,-0.04,0.7,1000
17:43:07.365,-4.4,2.88,-32.11,-20.55,-4.45,-6.95,-0.03,-0.03,0.71,1000
17:43:07.375,-4.21,2.75,-32.18,-25.61,-1.34,-6.16,-0.04,-0.03,0.72,1000
17:43:07.386,-4.02,2.91,-32.24,-30.67,1.1,-5.73,-0.05,-0.02,0.71,1000
17:43:07.397,-3.79,3.33,-32.3,-35.12,2.44,-5.24,-0.06,-0.02,0.7,1000
17:43:07.410,-3.61,3.87,-32.36,-39.33,3.11,-4.94,-0.07,-0.02,0.7,1000
17:43:07.419,-3.57,4.36,-32.41,-42.87,3.6,-4.82,-0.08,-0.02,0.71,1000
17:43:07.430,-3.59,4.83,-32.46,-45.79,3.96,-4.63,-0.08,-0.02,0.73,1000
17:43:07.451,-3.78,5.23,-32.51,-47.99,4.82,-3.96,-0.08,-0.03,0.73,1000
17:43:07.452,-4.08,5.63,-32.55,-49.39,5.55,-3.6,-0.09,-0.04,0.72,1000
17:43:07.463,-4.52,6.01,-32.59,-49.63,6.22,-2.8,-0.09,-0.06,0.72,1000
17:43:07.474,-5.02,6.26,-32.62,-49.21,7.32,-1.83,-0.09,-0.06,0.73,1000
17:43:07.486,-5.5,6.38,-32.63,-48.05,9.02,-0.79,-0.08,-0.07,0.75,1000
17:43:07.499,-5.97,6.38,-32.63,-46.65,11.22,0.49,-0.07,-0.07,0.75,1000
17:43:07.508,-6.36,6.26,-32.61,-44.57,14.27,2.26,-0.06,-0.08,0.76,1000
17:43:07.518,-6.6,6.01,-32.58,-42.5,18.11,3.72,-0.06,-0.07,0.76,1000
17:43:07.529,-6.67,5.68,-32.53,-40.55,22.44,5.24,-0.05,-0.07,0.77,1000
17:43:07.544,-6.62,5.38,-32.46,-38.35,27.13,6.95,-0.04,-0.06,0.78,1000
17:43:07.554,-6.57,5.12,-32.38,-36.04,31.4,8.41,-0.04,-0.06,0.78,1000
17:43:07.562,-6.47,4.89,-32.29,-33.17,35.61,9.88,-0.04,-0.06,0.78,1000
17:43:07.573,-6.45,4.69,-32.16,-28.72,41.28,11.77,-0.03,-0.07,0.8,1000
17:43:07.584,-6.42,4.56,-32.02,-24.39,45.12,13.54,-0.04,-0.08,0.82,1000
17:43:07.597,-6.38,4.49,-31.85,-19.39,49.57,15.43,-0.04,-0.08,0.83,1000
17:43:07.609,-6.24,4.56,-31.67,-14.21,53.54,17.32,-0.04,-0.07,0.84,1000
17:43:07.619,-5.9,4.57,-31.47,-9.45,57.38,18.78,-0.03,-0.06,0.85,1000
17:43:07.628,-5.53,4.42,-31.25,-4.76,59.7,21.52,-0.02,-0.05,0.86,1000
17:43:07.641,-4.47,3.86,-31.0,0.43,59.15,23.84,-0.0,0.02,0.93,1000
17:43:07.658,-3.47,3.38,-30.72,4.7,55.24,27.13,0.02,-0.02,0.89,1000
17:43:07.661,-2.55,2.78,-30.4,7.44,49.33,30.91,0.01,-0.01,0.9,1000
17:43:07.672,-2.09,2.41,-30.03,7.87,42.62,36.16,-0.0,-0.03,0.86,1000
17:43:07.683,-2.23,2.23,-29.59,4.02,36.34,42.2,-0.01,-0.07,0.87,1000
17:43:07.694,-2.72,2.33,-29.08,-2.07,33.54,47.87,-0.03,-0.09,0.89,1000
17:43:07.705,-3.54,2.55,-28.51,-7.26,31.04,55.43,-0.04,-0.1,0.97,1000
17:43:07.716,-3.79,2.77,-27.86,-15.0,31.1,60.98,-0.05,0.01,0.75,1000
17:43:07.727,-4.78,3.3,-27.15,-15.24,27.32,67.44,-0.07,-0.17,0.96,1000
17:43:07.738,-5.55,4.01,-26.37,-13.29,25.79,72.8,-0.11,-0.11,0.95,1000
17:43:07.756,-5.85,5.03,-25.54,-13.41,21.28,77.87,-0.17,-0.08,0.94,1000
17:43:07.760,-6.42,6.47,-24.65,-10.12,16.52,82.07,-0.21,-0.17,0.96,1000
17:43:07.771,-6.79,8.17,-23.73,-6.4,12.44,85.67,-0.27,-0.25,0.88,1000
17:43:07.782,-6.43,10.05,-22.77,-4.39,5.18,88.96,-0.29,-0.02,1.0,1000
17:43:07.794,-5.94,11.58,-21.78,-4.27,-1.71,90.24,-0.32,-0.01,0.98,1000
17:43:07.806,-5.49,12.66,-20.87,-1.04,-9.15,90.85,-0.32,-0.1,1.05,1000
17:43:07.820,-4.75,14.34,-19.78,0.49,-13.35,91.34,-0.31,-0.01,0.95,1000
17:43:07.828,-3.87,15.56,-18.77,-0.37,-16.22,92.01,-0.35,0.05,0.98,1000
17:43:07.840,-3.59,16.4,-17.76,0.0,-17.44,90.49,-0.38,-0.05,0.98,1000
17:43:07.849,-2.82,16.41,-16.78,1.59,-15.49,88.11,-0.31,-0.02,1.02,1000
17:43:07.865,-2.27,16.48,-15.83,5.06,-12.74,85.79,-0.32,-0.04,1.04,1000
17:43:07.890,-1.83,16.2,-14.89,8.6,-11.4,83.78,-0.3,-0.06,1.06,1000
17:43:07.892,-1.48,15.86,-13.99,13.96,-9.21,81.04,-0.28,-0.05,1.08,1000
17:43:07.898,-1.06,15.5,-13.12,18.96,-8.23,78.17,-0.28,-0.02,1.09,1000
17:43:07.910,-0.56,15.26,-12.27,23.41,-9.45,75.55,-0.29,0.0,1.1,1000
17:43:07.914,0.15,15.03,-11.46,28.48,-13.78,72.07,-0.29,0.05,1.1,1000
17:43:07.925,1.2,14.78,-10.69,30.43,-18.6,69.02,-0.28,0.08,1.12,1000
17:43:07.936,2.26,14.53,-9.95,32.44,-25.12,65.98,-0.29,0.08,1.08,1000
17:43:07.947,3.17,14.48,-9.24,33.05,-31.59,62.56,-0.35,0.07,1.1,1000
17:43:07.964,4.06,14.79,-8.58,32.5,-35.55,59.15,-0.36,0.1,1.05,1000
17:43:07.969,4.58,15.29,-7.95,30.55,-37.26,55.18,-0.34,0.1,1.01,1000
17:43:07.980,5.08,15.77,-7.37,27.62,-36.1,51.1,-0.35,0.09,1.01,1000
17:43:07.991,5.51,16.28,-6.83,22.99,-31.83,46.52,-0.33,0.11,0.96,1000
17:43:08.002,5.81,16.69,-6.35,16.04,-23.54,42.5,-0.31,0.1,0.93,1000
17:43:08.013,5.81,17.04,-5.9,10.0,-13.6,39.15,-0.3,0.06,0.88,1000
17:43:08.024,5.53,17.12,-5.49,3.11,-3.96,36.04,-0.25,0.05,0.91,1000
17:43:08.035,4.95,16.72,-5.11,-3.17,0.98,32.5,-0.23,0.04,0.93,1000
17:43:08.046,4.16,16.17,-4.78,-7.38,1.46,28.17,-0.24,0.01,1.02,1000
17:43:08.068,3.26,15.86,-4.5,-7.56,-2.13,23.9,-0.27,-0.01,1.01,1000
17:43:08.069,2.56,16.17,-4.26,-4.76,-6.77,20.06,-0.35,-0.01,0.99,1000
17:43:08.081,1.77,17.4,-4.06,-0.73,-11.28,15.73,-0.41,-0.01,0.94,1000
17:43:08.092,1.28,18.82,-3.92,1.16,-13.84,11.65,-0.44,-0.02,0.95,1000
17:43:08.101,0.89,20.23,-3.81,0.98,-15.73,7.74,-0.47,-0.03,0.95,1000
17:43:08.115,0.33,21.39,-3.75,-1.65,-16.46,4.02,-0.46,-0.04,0.96,1000
17:43:08.123,-0.16,21.96,-3.73,-3.78,-14.7,0.37,-0.41,0.0,0.98,1000
17:43:08.134,-0.53,21.75,-3.75,-6.95,-14.21,-2.26,-0.34,-0.06,1.02,1000
17:43:08.147,-0.85,21.07,-3.79,-8.23,-14.7,-5.0,-0.33,-0.03,1.09,1000
17:43:08.162,-0.98,20.27,-3.86,-10.61,-15.3,-7.68,-0.3,-0.01,0.99,1000
17:43:08.169,-1.17,19.42,-3.96,-13.05,-15.49,-10.24,-0.29,-0.02,1.05,1000
17:43:08.178,-1.44,18.46,-4.09,-15.85,-15.67,-12.87,-0.27,-0.04,0.97,1000
17:43:08.189,-1.77,17.4,-4.25,-18.72,-16.46,-15.37,-0.24,-0.03,1.05,1000
17:43:08.200,-2.13,16.27,-4.43,-19.51,-15.55,-16.83,-0.23,-0.05,0.99,1000
17:43:08.213,-2.54,15.15,-4.61,-17.32,-13.9,-17.26,-0.21,-0.07,1.05,1000
17:43:08.222,-2.96,14.29,-4.8,-13.66,-11.71,-16.83,-0.2,-0.08,1.01,1000
17:43:08.234,-3.21,13.67,-4.98,-8.66,-9.57,-15.73,-0.22,-0.07,1.05,1000
17:43:08.253,-3.25,13.39,-5.15,-3.96,-8.48,-14.33,-0.24,-0.05,1.01,1000
17:43:08.255,-2.9,13.36,-5.29,0.0,-7.93,-11.83,-0.27,-0.03,1.04,1000
17:43:08.267,-2.19,13.62,-5.41,2.99,-7.87,-9.15,-0.3,0.02,1.05,1000
17:43:08.277,-1.2,14.12,-5.49,4.39,-9.88,-6.28,-0.33,0.05,1.04,1000
17:43:08.288,-0.31,14.79,-5.54,2.13,-14.21,-3.78,-0.33,0.03,1.03,1000
17:43:08.299,0.08,15.69,-5.57,-3.72,-18.23,-1.4,-0.36,0.01,1.0,1000
17:43:08.311,0.34,16.63,-5.57,-10.55,-20.37,2.26,-0.34,0.05,0.95,1000
17:43:08.323,0.46,16.9,-5.51,-18.72,-20.24,6.95,-0.3,0.02,0.97,1000
17:43:08.334,0.33,16.64,-5.41,-24.88,-20.37,11.16,-0.25,0.0,0.98,1000
17:43:08.343,-0.05,15.77,-5.26,-31.16,-18.9,14.7,-0.21,-0.0,1.01,1000
17:43:08.354,-0.45,14.7,-5.08,-34.27,-18.84,18.41,-0.2,-0.01,1.02,1000
17:43:08.368,-0.86,13.85,-4.86,-38.05,-16.16,21.83,-0.2,-0.03,1.04,1000
17:43:08.378,-1.27,13.54,-4.6,-39.09,-12.32,24.94,-0.23,-0.02,0.99,1000
17:43:08.388,-1.51,13.65,-4.3,-38.66,-10.43,27.87,-0.26,-0.02,0.94,1000
17:43:08.398,-1.1,13.25,-3.99,-38.48,-10.37,28.72,-0.18,0.03,0.9,1000
17:43:08.409,-0.81,12.59,-3.67,-37.56,-11.95,28.17,-0.18,0.01,0.89,1000
17:43:08.421,-1.36,12.12,-3.37,-32.8,-11.22,29.27,-0.17,-0.07,0.94,1000
17:43:08.434,-2.01,11.58,-3.05,-26.4,-12.2,30.43,-0.14,-0.06,0.88,1000
17:43:08.443,-2.61,10.88,-2.7,-21.46,-10.3,32.01,-0.14,-0.08,0.9,1000
17:43:08.454,-2.94,10.14,-2.33,-15.3,-10.67,34.27,-0.1,-0.11,0.9,1000
17:43:08.465,-2.8,9.08,-1.95,-6.52,-7.26,35.24,-0.06,0.08,0.98,1000
17:43:08.477,-2.19,7.8,-1.56,-3.54,-5.73,33.84,-0.03,0.05,1.01,1000
17:43:08.486,-1.75,6.72,-1.2,2.44,-8.41,32.8,-0.04,-0.0,1.06,1000
17:43:08.497,-1.42,5.59,-0.85,6.22,-10.0,30.3,-0.02,-0.05,1.0,1000
17:43:08.508,-1.43,4.9,-0.54,7.74,-15.3,26.71,-0.09,-0.03,1.05,1000
17:43:08.519,-1.55,4.41,-0.29,9.15,-20.91,24.39,-0.09,-0.04,1.01,1000
17:43:08.530,-1.89,4.14,-0.01,7.44,-26.77,22.44,-0.09,-0.15,0.98,1000
17:43:08.541,-2.82,4.45,0.24,11.65,-27.32,21.46,-0.12,-0.13,1.0,1000
17:43:08.552,-3.01,4.61,0.45,5.18,-19.57,17.68,-0.08,0.05,1.14,1000
17:43:08.579,-3.81,5.1,0.63,11.95,-17.07,14.63,-0.3,-0.28,0.97,1000
17:43:08.586,-4.62,6.45,0.81,17.32,-16.83,16.04,-0.22,-0.03,1.06,1000
17:43:08.586,-4.27,7.51,0.97,13.35,1.89,14.33,-0.13,0.05,1.0,1000
17:43:08.596,-3.63,8.71,1.1,9.39,14.33,10.67,-0.27,-0.08,0.95,1000
17:43:08.607,-2.98,10.32,1.19,7.93,22.8,6.77,-0.23,-0.08,0.96,1000
17:43:08.622,-2.25,11.19,1.23,3.11,35.91,1.22,-0.16,0.0,0.91,1000
17:43:08.633,-1.93,12.29,1.22,1.28,47.2,-2.99,-0.27,-0.05,0.94,1000
17:43:08.640,-2.06,13.72,1.16,3.54,56.52,-6.52,-0.3,-0.07,0.88,1000
17:43:08.651,-2.28,15.38,1.07,5.67,68.9,-9.7,-0.28,-0.04,0.9,1000
17:43:08.662,-2.43,16.8,0.95,10.18,80.79,-11.83,-0.33,-0.12,0.94,1000
17:43:08.686,-2.09,18.59,0.82,12.38,85.18,-12.38,-0.35,0.05,0.86,1000
17:43:08.686,-1.2,19.64,0.68,15.06,84.88,-13.96,-0.27,-0.03,0.83,1000
17:43:08.695,-0.8,20.46,0.51,22.32,82.99,-15.98,-0.29,-0.05,0.88,1000
17:43:08.706,-0.05,20.7,0.32,23.96,78.17,-17.8,-0.3,0.1,0.89,1000
17:43:08.717,0.45,20.73,0.12,25.98,73.54,-18.96,-0.32,0.0,1.08,1000
17:43:08.728,1.01,20.56,-0.09,27.56,69.21,-18.9,-0.3,0.03,0.98,1000
17:43:08.739,1.61,19.98,-0.31,26.89,62.01,-19.7,-0.28,0.04,1.1,1000
17:43:08.753,1.88,19.21,-0.53,22.13,50.85,-21.16,-0.28,0.01,0.99,1000
17:43:08.762,1.77,18.67,-0.77,16.52,37.62,-22.07,-0.27,-0.02,1.04,1000
17:43:08.772,1.38,18.59,-1.01,13.23,27.13,-22.87,-0.31,-0.03,0.97,1000
17:43:08.788,0.48,18.78,-1.27,11.59,19.39,-23.6,-0.36,-0.07,0.97,1000
17:43:08.794,-0.54,19.25,-1.52,10.3,11.28,-23.35,-0.35,-0.09,0.94,1000
17:43:08.805,-1.39,19.32,-1.78,10.67,3.29,-23.29,-0.33,-0.09,1.01,1000
17:43:08.818,-1.83,19.22,-2.04,11.95,-2.01,-24.76,-0.33,-0.05,0.97,1000
17:43:08.827,-1.76,19.01,-2.31,12.44,-4.63,-27.26,-0.34,-0.02,1.0,1000
17:43:08.838,-1.34,19.08,-2.66,11.59,-3.78,-31.65,-0.33,-0.02,0.9,1000
17:43:08.849,-0.53,20.22,-3.05,12.74,1.34,-37.87,-0.37,0.1,0.96,1000
17:43:08.860,0.8,21.36,-3.52,17.62,12.93,-46.46,-0.47,0.06,0.84,1000
17:43:08.879,1.82,22.33,-4.07,26.34,21.65,-54.82,-0.43,0.06,0.96,1000
17:43:08.884,2.89,23.51,-4.66,32.32,31.34,-61.83,-0.46,0.09,0.87,1000
17:43:08.893,3.61,24.05,-5.47,40.73,37.62,-71.22,-0.48,0.05,0.96,1000
17:43:08.905,4.13,24.71,-6.31,49.02,37.26,-79.76,-0.46,0.05,0.97,1000
17:43:08.915,4.63,24.78,-7.24,52.99,34.51,-88.17,-0.42,0.09,0.99,1000
17:43:08.929,5.1,24.57,-8.26,53.05,30.37,-95.85,-0.4,0.09,1.01,1000
17:43:08.938,5.39,24.06,-9.35,49.15,25.43,-101.89,-0.37,0.06,1.01,1000
17:43:08.948,5.6,23.41,-10.5,43.17,22.44,-106.4,-0.34,0.08,1.0,1000
17:43:08.960,5.53,22.53,-11.69,37.68,18.23,-109.33,-0.35,0.07,1.02,1000
17:43:08.972,5.28,21.99,-12.91,33.96,13.84,-111.59,-0.38,0.03,1.02,1000
17:43:08.992,4.68,21.46,-14.14,32.99,11.59,-111.4,-0.38,0.05,1.02,1000
17:43:08.993,3.93,21.16,-15.35,32.93,12.26,-109.21,-0.38,0.03,1.0,1000
17:43:09.003,3.39,21.02,-16.53,31.22,14.45,-105.24,-0.36,-0.01,0.99,1000
17:43:09.014,3.06,21.12,-17.66,28.41,16.28,-102.38,-0.38,0.02,1.04,1000
17:43:09.025,3.01,21.27,-18.78,24.57,15.73,-100.0,-0.41,0.05,1.03,1000
17:43:09.036,3.07,21.65,-19.87,20.43,12.01,-99.09,-0.45,0.06,1.04,1000
17:43:09.053,3.22,22.27,-20.96,15.37,6.71,-100.24,-0.45,0.07,1.01,1000
17:43:09.060,3.36,22.49,-22.08,10.24,1.65,-102.5,-0.43,0.06,1.02,1000
17:43:09.069,3.43,22.3,-23.23,4.94,-1.04,-106.22,-0.39,0.05,1.02,1000
17:43:09.090,3.12,21.92,-24.42,0.67,0.49,-109.02,-0.4,0.04,1.03,1000
17:43:09.096,2.52,21.54,-25.63,-2.38,5.43,-111.77,-0.37,0.0,1.02,1000
17:43:09.102,1.73,21.33,-26.88,-4.02,10.3,-114.27,-0.37,-0.04,1.0,1000
17:43:09.113,0.79,21.44,-28.15,-5.85,18.84,-116.95,-0.39,-0.03,1.01,1000
17:43:09.126,-0.15,21.96,-29.46,-6.89,31.34,-120.55,-0.43,-0.07,0.97,1000
17:43:09.137,-1.11,23.16,-30.8,-7.2,44.57,-123.17,-0.49,-0.11,0.97,1000
17:43:09.146,-2.12,24.58,-32.17,-7.8,54.21,-125.73,-0.52,-0.1,0.93,1000
17:43:09.157,-3.31,26.29,-33.56,-7.56,58.29,-127.62,-0.56,-0.15,0.99,1000
17:43:09.168,-4.45,27.58,-34.97,-6.1,54.21,-128.23,-0.52,-0.16,0.93,1000
17:43:09.184,-5.39,28.78,-36.39,-4.51,44.21,-128.54,-0.6,-0.16,0.96,1000
17:43:09.194,-6.24,29.56,-37.8,-1.52,33.72,-127.62,-0.57,-0.16,0.91,1000
17:43:09.201,-7.02,30.01,-39.2,2.99,23.48,-126.83,-0.56,-0.18,0.99,1000
17:43:09.212,-7.68,30.09,-40.59,7.74,14.27,-125.85,-0.56,-0.19,0.94,1000
17:43:09.223,-8.2,30.06,-41.96,12.07,5.43,-124.02,-0.56,-0.19,0.99,1000
17:43:09.235,-8.32,30.15,-43.31,12.68,-4.45,-121.46,-0.54,-0.2,0.83,1000
17:43:09.245,-8.89,29.75,-44.63,20.85,-8.05,-118.72,-0.51,-0.19,1.0,1000
17:43:09.256,-9.44,29.3,-45.92,25.55,-11.59,-115.55,-0.52,-0.14,0.91,1000
17:43:09.267,-9.6,28.42,-47.16,29.45,-19.33,-112.26,-0.49,-0.21,1.02,1000
17:43:09.292,-9.86,28.07,-48.38,34.21,-22.74,-108.41,-0.48,-0.23,0.94,1000
17:43:09.295,-9.95,27.98,-49.55,32.07,-27.62,-105.0,-0.51,-0.28,0.88,1000
17:43:09.300,-10.41,28.38,-50.67,35.18,-24.57,-100.85,-0.52,-0.27,0.92,1000
17:43:09.311,-10.79,28.96,-51.76,37.93,-18.48,-96.83,-0.54,-0.25,0.85,1000
17:43:09.322,-10.28,29.37,-52.81,36.83,-15.79,-94.51,-0.54,-0.14,0.87,1000
17:43:09.333,-9.58,29.09,-53.83,37.74,-15.73,-91.04,-0.51,-0.08,0.9,1000
17:43:09.350,-9.07,28.42,-54.81,43.41,-14.09,-88.41,-0.41,-0.12,0.9,1000
17:43:09.368,-8.08,27.81,-55.77,47.13,-11.04,-86.16,-0.39,-0.08,0.86,1000
17:43:09.368,-6.98,27.43,-56.7,47.13,-6.59,-84.21,-0.42,-0.01,0.88,1000
17:43:09.377,-5.52,26.88,-57.62,46.28,-1.95,-82.32,-0.41,0.07,0.8,1000
17:43:09.399,-4.65,26.59,-58.52,43.9,5.24,-81.22,-0.39,-0.12,0.86,1000
17:43:09.399,-4.14,26.94,-59.39,33.66,16.59,-77.74,-0.42,-0.13,0.67,1000
17:43:09.410,-4.84,27.82,-60.23,25.06,32.01,-74.39,-0.4,-0.34,0.76,1000
17:43:09.421,-6.79,28.73,-61.01,7.2,51.59,-67.68,-0.53,-0.06,0.8,1000
17:43:09.432,-8.75,29.57,-61.7,-15.91,67.56,-59.15,-0.49,-0.21,0.82,1000
17:43:09.445,-10.52,29.67,-62.3,-33.35,80.37,-50.91,-0.33,-0.33,0.81,1000
17:43:09.454,-11.9,29.03,-62.81,-47.07,88.48,-43.35,-0.29,-0.2,0.88,1000
17:43:09.465,-11.4,27.71,-63.25,-55.43,87.62,-37.13,-0.37,-0.0,0.86,1000
17:43:09.476,-10.46,26.46,-63.63,-51.95,83.6,-34.02,-0.3,-0.08,0.96,1000
17:43:09.492,-9.18,25.26,-63.97,-47.68,69.76,-28.96,-0.33,0.0,0.89,1000
17:43:09.501,-8.4,24.93,-64.28,-41.71,60.61,-26.52,-0.34,-0.03,0.92,1000
17:43:09.509,-7.98,25.46,-64.55,-38.9,51.95,-22.13,-0.4,-0.1,0.77,1000
17:43:09.520,-8.77,26.13,-64.76,-40.06,48.35,-16.59,-0.4,-0.15,0.81,1000
17:43:09.533,-10.67,27.26,-64.9,-45.85,48.96,-10.06,-0.43,-0.24,0.76,1000
17:43:09.547,-12.99,28.2,-64.96,-52.87,52.99,-1.89,-0.49,-0.33,0.77,1000
17:43:09.553,-15.57,29.24,-64.93,-58.72,58.17,7.01,-0.5,-0.37,0.74,1000
17:43:09.565,-17.64,30.1,-64.79,-61.22,60.0,15.24,-0.52,-0.36,0.76,1000
17:43:09.575,-19.07,31.17,-64.58,-60.67,57.5,22.99,-0.54,-0.33,0.73,1000
17:43:09.587,-19.74,32.26,-64.28,-59.09,51.95,29.09,-0.54,-0.29,0.7,1000
17:43:09.603,-19.92,33.41,-63.93,-58.96,45.67,34.57,-0.52,-0.25,0.67,1000
17:43:09.608,-19.78,34.09,-63.52,-60.67,40.91,39.02,-0.49,-0.23,0.67,1000
17:43:09.621,-19.71,34.36,-63.07,-63.6,38.6,42.87,-0.48,-0.25,0.69,1000
17:43:09.631,-19.83,34.42,-62.57,-67.26,41.16,46.89,-0.5,-0.27,0.71,1000
17:43:09.641,-20.23,34.65,-62.04,-70.12,46.59,50.43,-0.53,-0.3,0.74,1000
17:43:09.657,-20.59,35.16,-61.46,-71.65,51.89,53.66,-0.59,-0.3,0.75,1000
17:43:09.664,-20.76,36.06,-60.86,-70.12,55.43,55.79,-0.64,-0.31,0.78,1000
17:43:09.674,-20.22,37.1,-60.24,-67.32,54.57,56.52,-0.63,-0.21,0.72,1000
17:43:09.685,-19.26,38.48,-59.62,-62.44,49.7,55.55,-0.67,-0.34,0.81,1000
17:43:09.699,-18.14,39.53,-59.01,-54.39,46.77,54.27,-0.65,-0.33,0.78,1000
