Timestamp,Roll,Pitch,Yaw,Gyro_X,Gyro_Y,Gyro_Z,Accel_X,Accel_Y,Accel_Z,Throttle
17:13:41.142,-1.66,-1.71,10.36,-0.12,-1.4,3.78,0.05,-0.04,1.02,1000
17:13:41.151,-1.73,-1.93,10.41,0.85,-1.1,4.39,0.06,-0.04,1.04,1000
17:13:41.162,-1.78,-2.17,10.46,1.65,-0.3,3.41,0.05,-0.04,1.03,1000
17:13:41.175,-1.83,-2.28,10.48,1.95,0.43,1.22,0.04,-0.05,1.04,1000
17:13:41.184,-1.87,-2.29,10.48,2.07,0.73,-1.1,0.03,-0.03,1.03,1000
17:13:41.196,-1.87,-2.21,10.46,1.04,0.49,-2.56,0.03,-0.04,1.03,1000
17:13:41.206,-1.93,-2.15,10.43,-0.3,0.0,-2.62,0.05,-0.03,1.02,1000
17:13:41.221,-1.9,-2.19,10.41,-1.89,-0.91,-0.85,0.04,-0.02,1.03,1000
17:13:41.229,-1.85,-2.23,10.41,-3.84,-2.5,0.3,0.04,-0.05,1.02,1000
17:13:41.240,-1.91,-2.31,10.42,-4.39,-3.41,2.26,0.06,-0.02,1.03,1000
17:13:41.250,-1.87,-2.48,10.45,-4.51,-3.48,3.54,0.05,-0.03,1.03,1000
17:13:41.272,-1.86,-2.57,10.49,-4.02,-2.74,3.17,0.04,-0.04,1.04,1000
17:13:41.275,-1.89,-2.58,10.52,-2.93,-1.59,1.77,0.04,-0.04,1.03,1000
17:13:41.284,-1.94,-2.55,10.53,-2.32,-0.43,1.1,0.04,-0.04,1.04,1000
17:13:41.296,-2.03,-2.54,10.55,-0.98,0.12,1.59,0.06,-0.05,1.03,1000
17:13:41.305,-2.13,-2.64,10.56,0.0,0.3,2.56,0.06,-0.03,1.05,1000
17:13:41.321,-2.11,-2.77,10.6,1.59,0.3,2.74,0.06,-0.05,1.04,1000
17:13:41.327,-2.18,-2.88,10.63,3.84,0.55,2.5,0.07,-0.05,1.06,1000
17:13:41.342,-2.2,-3.0,10.65,5.61,0.67,0.79,0.05,-0.02,1.05,1000
17:13:41.349,-2.07,-2.99,10.64,6.89,0.85,-2.2,0.03,-0.05,1.05,1000
17:13:41.402,-2.05,-2.86,10.6,6.89,0.67,-5.06,0.03,-0.05,1.02,1000
17:13:41.402,-2.09,-2.72,10.54,6.95,0.37,-5.79,0.07,-0.05,1.03,1000
17:13:41.402,-2.21,-2.83,10.48,8.05,0.0,-3.11,0.11,-0.07,1.04,1000
17:13:41.402,-2.25,-3.22,10.46,8.6,-0.55,-1.83,0.1,-0.01,1.08,1000
17:13:41.405,-2.08,-3.47,10.43,9.57,-1.28,-3.41,0.07,-0.03,1.07,1000
17:13:41.428,-1.85,-3.58,10.37,11.95,-1.77,-7.56,0.04,-0.03,1.07,1000
17:13:41.428,-1.65,-3.43,10.27,14.27,-2.13,-12.38,0.02,-0.02,1.03,1000
17:13:41.437,-1.47,-3.11,10.12,14.82,-2.2,-16.4,0.01,-0.02,1.02,1000
17:13:41.448,-1.26,-2.66,9.91,12.93,-1.71,-16.83,0.03,-0.02,0.98,1000
17:13:41.459,-1.08,-2.54,9.75,8.48,-1.04,-12.74,0.07,0.0,1.01,1000
17:13:41.470,-0.74,-2.71,9.63,4.82,0.12,-7.44,0.07,0.01,0.99,1000
17:13:41.481,-0.46,-2.92,9.58,1.83,1.77,-2.62,0.06,0.0,1.02,1000
17:13:41.492,-0.22,-3.0,9.56,0.0,2.8,-0.18,0.04,0.01,1.01,1000
17:13:41.507,-0.1,-2.92,9.56,-0.06,3.66,-0.12,0.03,-0.01,1.03,1000
17:13:41.515,-0.07,-2.69,9.55,0.73,4.82,-2.07,0.01,-0.0,1.01,1000
17:13:41.527,-0.07,-2.29,9.52,2.32,5.18,-3.84,0.01,-0.01,1.01,1000
17:13:41.536,-0.1,-1.94,9.48,3.66,5.37,-3.9,0.03,-0.0,0.99,1000
17:13:41.547,-0.04,-1.81,9.44,4.88,4.45,-1.83,0.05,0.0,1.02,1000
17:13:41.558,0.05,-1.88,9.43,5.98,3.54,0.49,0.04,0.0,1.02,1000
17:13:41.569,0.15,-1.89,9.44,6.65,1.89,0.98,0.01,0.0,1.03,1000
17:13:41.580,0.2,-1.76,9.45,6.04,0.61,-0.43,0.0,-0.02,1.02,1000
17:13:41.591,0.13,-1.45,9.43,4.09,-0.91,-2.2,-0.01,-0.0,1.02,1000
17:13:41.602,0.02,-1.12,9.41,1.34,-2.01,-2.74,0.01,-0.02,1.0,1000
17:13:41.630,-0.1,-1.01,9.38,-1.95,-2.93,-1.28,0.03,0.02,1.01,1000
17:13:41.633,-0.04,-1.06,9.38,-5.18,-3.41,0.67,0.02,0.01,1.0,1000
17:13:41.635,0.03,-1.13,9.39,-6.77,-3.66,2.38,0.02,0.01,1.01,1000
17:13:41.646,0.04,-1.26,9.43,-7.44,-3.48,4.7,0.05,0.01,1.01,1000
17:13:41.657,0.05,-1.48,9.49,-6.89,-3.17,5.55,0.04,-0.0,1.02,1000
17:13:41.670,-0.02,-1.65,9.55,-6.95,-3.05,5.12,0.03,-0.02,1.03,1000
17:13:41.679,-0.14,-1.7,9.59,-6.04,-2.8,3.29,0.03,-0.01,1.02,1000
17:13:41.698,-0.3,-1.73,9.63,-5.24,-2.87,2.01,0.04,-0.02,1.03,1000
17:13:41.705,-0.43,-1.78,9.65,-4.7,-2.8,2.07,0.05,-0.02,1.02,1000
17:13:41.714,-0.56,-1.91,9.67,-3.96,-2.74,2.87,0.05,-0.02,1.04,1000
17:13:41.735,-0.71,-2.15,9.71,-2.8,-2.56,4.15,0.07,-0.02,1.03,1000
17:13:41.735,-0.86,-2.53,9.76,-1.04,-2.01,5.43,0.08,-0.02,1.05,1000
17:13:41.745,-0.89,-2.8,9.82,-0.55,-1.46,4.33,0.05,-0.01,1.05,1000
17:13:41.756,-0.91,-2.93,9.85,-0.18,-0.73,2.01,0.05,-0.02,1.04,1000
17:13:41.767,-0.98,-2.98,9.87,-0.12,-0.24,0.49,0.06,-0.02,1.04,1000
17:13:41.778,-1.02,-3.05,9.87,0.67,0.12,-0.55,0.08,-0.05,1.02,1000
17:13:41.789,-1.17,-3.26,9.87,1.34,0.24,-0.18,0.09,-0.02,1.04,1000
17:13:41.800,-1.19,-3.58,9.87,2.74,0.43,-0.12,0.09,-0.0,1.05,1000
17:13:41.815,-1.04,-3.88,9.86,3.35,0.67,-1.16,0.08,-0.0,1.07,1000
17:13:41.822,-0.91,-3.97,9.84,3.35,0.3,-3.9,0.06,-0.02,1.05,1000
17:13:41.842,-0.83,-3.9,9.78,3.05,-0.24,-6.83,0.03,-0.02,1.05,1000
17:13:41.845,-0.81,-3.64,9.69,1.28,-0.79,-9.09,0.03,-0.01,1.03,1000
17:13:41.855,-0.71,-3.32,9.59,-2.01,-1.28,-9.45,0.02,0.03,1.02,1000
17:13:41.866,-0.56,-3.01,9.49,-5.49,-2.13,-7.56,0.03,-0.01,0.99,1000
17:13:41.877,-0.51,-2.79,9.43,-8.05,-2.2,-3.66,0.04,-0.01,0.99,1000
17:13:41.888,-0.55,-2.76,9.41,-9.76,-2.5,1.71,0.09,-0.01,1.0,1000
17:13:41.899,-0.58,-3.11,9.47,-9.51,-2.07,7.62,0.08,0.01,1.03,1000
17:13:41.910,-0.5,-3.37,9.56,-8.41,-0.85,7.68,0.05,-0.02,1.04,1000
17:13:41.921,-0.55,-3.38,9.63,-5.91,0.37,4.39,0.04,-0.02,1.04,1000
17:13:41.941,-0.67,-3.16,9.65,-2.93,1.59,-0.98,0.02,-0.02,1.04,1000
17:13:41.943,-0.85,-2.76,9.61,-1.46,1.77,-6.34,0.01,-0.03,1.04,1000
17:13:41.954,-1.0,-2.36,9.53,-1.83,1.22,-9.09,0.02,-0.01,1.03,1000
17:13:41.965,-1.02,-2.14,9.43,-2.87,-0.55,-8.23,0.04,-0.02,1.01,1000
17:13:41.976,-1.09,-2.14,9.36,-3.48,-2.26,-4.33,0.07,-0.03,1.0,1000
17:13:41.987,-1.13,-2.39,9.33,-4.39,-3.17,0.43,0.08,0.01,1.03,1000
17:13:42.002,-1.06,-2.72,9.36,-4.57,-3.11,3.23,0.06,-0.03,1.04,1000
17:13:42.024,-1.11,-2.86,9.39,-4.39,-2.01,2.68,0.04,-0.02,1.05,1000
17:13:42.024,-1.14,-2.83,9.4,-3.72,-0.37,-0.61,0.03,-0.03,1.04,1000
17:13:42.039,-1.21,-2.68,9.38,-2.99,1.16,-4.09,0.02,-0.04,1.05,1000
17:13:42.044,-1.33,-2.45,9.33,-2.5,1.16,-5.67,0.03,-0.05,1.01,1000
17:13:42.054,-1.51,-2.44,9.27,-1.4,0.73,-3.35,0.09,-0.01,1.05,1000
17:13:42.064,-1.47,-2.66,9.25,0.49,0.98,-1.16,0.07,-0.01,1.03,1000
17:13:42.076,-1.38,-2.9,9.24,1.04,1.04,-0.18,0.05,-0.03,1.07,1000
17:13:42.088,-1.31,-2.93,9.24,1.71,1.52,-1.22,0.04,-0.03,1.03,1000
17:13:42.098,-1.31,-2.87,9.22,1.95,1.83,-2.01,0.04,-0.03,1.06,1000
17:13:42.108,-1.34,-2.72,9.2,1.22,2.07,-2.62,0.03,-0.02,1.02,1000
17:13:42.121,-1.31,-2.51,9.17,-0.61,1.34,-2.68,0.02,-0.02,1.04,1000
17:13:42.142,-1.3,-2.3,9.14,-1.95,0.61,-1.4,0.04,-0.03,0.99,1000
17:13:42.144,-1.31,-2.2,9.14,-2.93,-0.3,1.1,0.04,-0.01,1.03,1000
17:13:42.152,-1.27,-2.21,9.17,-2.93,-1.34,3.72,0.06,-0.02,1.01,1000
17:13:42.163,-1.16,-2.38,9.22,-2.44,-1.77,5.24,0.05,0.0,1.05,1000
17:13:42.175,-1.02,-2.45,9.27,-2.01,-2.01,4.27,0.04,-0.03,1.03,1000
17:13:42.185,-1.03,-2.44,9.31,-0.55,-1.71,1.65,0.03,-0.02,1.04,1000
17:13:42.197,-1.07,-2.37,9.31,-0.73,-1.83,-1.34,0.03,-0.04,1.03,1000
17:13:42.207,-1.17,-2.25,9.28,-0.91,-1.83,-3.23,0.04,-0.03,1.03,1000
17:13:42.218,-1.27,-2.22,9.25,-1.71,-2.2,-3.48,0.05,-0.02,1.03,1000
17:13:42.229,-1.3,-2.33,9.21,-0.98,-2.38,-2.38,0.07,-0.04,1.01,1000
17:13:42.241,-1.44,-2.72,9.2,1.71,-2.2,0.3,0.11,-0.05,1.02,1000
17:13:42.251,-1.53,-3.27,9.21,5.18,-1.04,1.65,0.12,-0.02,1.05,1000
17:13:42.267,-1.44,-3.89,9.22,8.23,0.55,0.24,0.11,-0.02,1.08,1000
17:13:42.273,-1.33,-4.24,9.21,10.79,2.5,-3.72,0.08,-0.04,1.08,1000
17:13:42.284,-1.31,-4.25,9.14,13.29,4.33,-9.21,0.05,-0.05,1.06,1000
17:13:42.295,-1.38,-4.04,9.03,14.82,5.55,-13.78,0.05,-0.05,1.05,1000
17:13:42.307,-1.42,-3.77,8.84,16.1,6.46,-16.4,0.06,-0.02,1.02,1000
17:13:42.317,-1.35,-3.59,8.67,15.73,7.26,-15.43,0.07,-0.03,1.02,1000
17:13:42.328,-1.17,-3.53,8.51,12.99,8.05,-12.13,0.06,0.01,1.02,1000
17:13:42.339,-0.75,-3.4,8.39,9.09,8.48,-9.57,0.03,0.01,1.01,1000
17:13:42.352,-0.43,-3.05,8.29,4.7,8.35,-7.74,0.02,0.0,0.99,1000
17:13:42.362,-0.25,-2.7,8.22,0.85,7.62,-5.61,0.03,0.01,1.0,1000
17:13:42.372,-0.09,-2.42,8.17,-2.99,6.28,-4.09,0.02,0.02,1.0,1000
17:13:42.383,0.1,-2.09,8.12,-5.98,4.51,-3.96,0.01,0.03,1.0,1000
17:13:42.394,0.31,-1.73,8.08,-7.62,2.62,-4.45,0.0,0.02,1.0,1000
17:13:42.405,0.39,-1.43,8.03,-7.56,1.34,-4.82,0.01,0.01,1.01,1000
17:13:42.416,0.39,-1.2,7.98,-6.65,-0.06,-4.21,0.01,0.0,1.02,1000
17:13:42.428,0.31,-1.06,7.94,-5.49,-1.59,-3.05,0.02,-0.01,1.02,1000
17:13:42.456,0.17,-1.04,7.91,-4.27,-2.13,-1.71,0.02,0.0,1.03,1000
17:13:42.456,0.1,-1.02,7.89,-2.8,-2.2,-1.71,-0.0,-0.01,1.03,1000
17:13:42.460,-0.07,-0.87,7.87,-2.07,-1.95,-2.68,-0.0,-0.02,1.04,1000
17:13:42.471,-0.23,-0.69,7.84,-2.26,-1.59,-3.05,0.0,-0.01,1.02,1000
17:13:42.485,-0.36,-0.54,7.8,-3.05,-1.16,-2.93,0.0,-0.01,1.03,1000
17:13:42.493,-0.43,-0.43,7.77,-4.7,-1.1,-2.38,0.0,-0.01,1.01,1000
17:13:42.505,-0.45,-0.34,7.75,-6.46,-0.55,-1.04,0.01,0.0,1.02,1000
17:13:42.515,-0.42,-0.3,7.75,-8.17,0.06,1.28,0.01,0.01,1.01,1000
17:13:42.527,-0.39,-0.31,7.78,-9.45,0.12,3.78,0.02,-0.01,1.02,1000
17:13:42.537,-0.44,-0.4,7.83,-10.91,-0.37,6.22,0.01,-0.0,1.02,1000
17:13:42.548,-0.48,-0.45,7.91,-11.95,-0.85,7.07,0.01,-0.01,1.03,1000
17:13:42.560,-0.58,-0.5,7.99,-11.95,-1.4,7.26,0.01,-0.01,1.02,1000
17:13:42.572,-0.68,-0.55,8.07,-11.4,-2.01,6.89,0.02,-0.02,1.03,1000
17:13:42.581,-0.85,-0.65,8.14,-10.37,-2.32,6.59,0.03,-0.03,1.03,1000
17:13:42.593,-1.07,-0.89,8.21,-8.9,-2.44,6.28,0.05,-0.03,1.04,1000
17:13:42.603,-1.23,-1.17,8.27,-7.26,-2.2,5.91,0.05,-0.04,1.04,1000
17:13:42.617,-1.41,-1.53,8.33,-5.12,-1.83,5.0,0.06,-0.04,1.06,1000
17:13:42.626,-1.55,-1.8,8.38,-2.74,-1.16,2.93,0.04,-0.04,1.05,1000
17:13:42.662,-1.71,-1.98,8.4,-1.22,-0.85,1.1,0.04,-0.05,1.06,1000
17:13:42.662,-1.86,-2.07,8.41,-0.37,-0.91,-0.3,0.04,-0.05,1.04,1000
17:13:42.662,-2.04,-2.19,8.4,0.37,-0.91,0.06,0.07,-0.05,1.04,1000
17:13:42.670,-2.12,-2.45,8.41,0.61,-0.49,1.65,0.08,-0.03,1.04,1000
17:13:42.681,-2.09,-2.76,8.44,0.18,0.18,2.2,0.07,-0.04,1.05,1000
17:13:42.692,-2.08,-2.97,8.46,1.16,1.46,1.4,0.07,-0.04,1.04,1000
17:13:42.702,-2.07,-3.13,8.46,1.83,2.68,-0.24,0.07,-0.02,1.05,1000
17:13:42.717,-1.96,-3.21,8.45,2.56,3.17,-2.38,0.05,-0.03,1.03,1000
17:13:42.724,-1.88,-3.18,8.42,2.5,2.32,-3.96,0.04,-0.03,1.05,1000
17:13:42.735,-1.8,-3.03,8.37,1.71,0.67,-4.94,0.04,-0.03,1.02,1000
17:13:42.767,-1.8,-2.93,8.31,1.71,-0.91,-4.39,0.06,-0.05,1.02,1000
17:13:42.767,-1.83,-3.04,8.28,2.5,-1.28,-2.13,0.09,-0.03,1.01,1000
17:13:42.768,-1.82,-3.34,8.26,4.88,-0.85,0.18,0.1,-0.03,1.06,1000
17:13:42.779,-1.67,-3.7,8.27,7.87,0.67,-0.3,0.07,0.0,1.07,1000
17:13:42.790,-1.5,-3.77,8.25,9.76,2.74,-3.9,0.04,-0.05,1.07,1000
17:13:42.801,-1.52,-3.43,8.18,10.61,4.76,-9.02,0.0,-0.03,1.04,1000
17:13:42.812,-1.5,-2.92,8.06,10.55,5.98,-12.44,0.02,-0.04,1.02,1000
17:13:42.823,-1.52,-2.51,7.92,8.84,6.77,-12.26,0.04,-0.02,1.01,1000
17:13:42.838,-1.44,-2.31,7.8,6.22,6.65,-9.57,0.05,0.0,1.01,1000
17:13:42.855,-1.25,-2.26,7.71,2.99,5.98,-6.65,0.02,0.01,1.01,1000
17:13:42.865,-0.98,-2.06,7.65,0.0,4.63,-5.37,0.01,-0.01,1.0,1000
17:13:42.871,-0.8,-1.73,7.59,-1.4,3.41,-4.57,-0.0,-0.0,1.0,1000
17:13:42.878,-0.69,-1.43,7.54,-2.2,2.01,-3.72,0.01,-0.01,0.99,1000
17:13:42.890,-0.64,-1.21,7.51,-2.38,0.79,-2.62,0.02,0.01,1.01,1000
17:13:42.900,-0.55,-1.07,7.48,-1.77,0.06,-2.32,0.01,-0.01,1.02,1000
17:13:42.911,-0.5,-0.98,7.46,-1.22,0.0,-1.77,0.01,-0.01,1.02,1000
17:13:42.925,-0.49,-0.88,7.44,-0.85,0.18,-2.13,0.01,-0.01,1.03,1000
17:13:42.933,-0.51,-0.75,7.41,-0.85,0.43,-2.56,-0.0,-0.02,1.03,1000
17:13:42.944,-0.61,-0.59,7.38,-1.4,0.3,-2.68,0.0,-0.01,1.02,1000
17:13:42.956,-0.7,-0.47,7.36,-1.83,0.37,-2.01,0.01,-0.03,1.02,1000
17:13:42.966,-0.8,-0.44,7.34,-3.17,0.18,-0.49,0.02,-0.01,1.03,1000
17:13:42.977,-0.81,-0.46,7.34,-3.72,-0.06,0.12,0.0,-0.01,1.02,1000
17:13:42.988,-0.79,-0.43,7.34,-4.88,-0.43,0.18,0.01,-0.01,1.03,1000
17:13:43.000,-0.76,-0.42,7.34,-5.49,-0.91,0.3,0.01,-0.01,1.01,1000
17:13:43.010,-0.74,-0.45,7.35,-5.79,-1.65,0.91,0.01,-0.01,1.03,1000
17:13:43.023,-0.76,-0.49,7.36,-6.28,-2.56,1.65,0.02,-0.03,1.01,1000
17:13:43.033,-0.87,-0.58,7.38,-6.83,-3.05,2.38,0.03,-0.01,1.04,1000
17:13:43.046,-0.94,-0.69,7.41,-7.07,-3.17,2.62,0.01,-0.02,1.02,1000
17:13:43.061,-1.07,-0.75,7.44,-7.2,-2.8,1.83,0.02,-0.02,1.04,1000
17:13:43.068,-1.18,-0.8,7.45,-7.13,-2.5,1.28,0.02,-0.03,1.02,1000
17:13:43.078,-1.3,-0.9,7.47,-7.44,-1.95,1.52,0.04,-0.02,1.04,1000
17:13:43.089,-1.37,-1.07,7.48,-7.44,-1.4,1.83,0.03,-0.03,1.02,1000
17:13:43.098,-1.5,-1.2,7.51,-6.59,-0.67,2.38,0.05,-0.05,1.03,1000
17:13:43.109,-1.69,-1.51,7.54,-5.91,-0.18,3.54,0.07,-0.02,1.04,1000
17:13:43.120,-1.69,-1.79,7.58,-4.63,0.12,3.05,0.04,-0.03,1.05,1000
17:13:43.131,-1.75,-1.9,7.6,-3.05,-0.18,1.1,0.02,-0.04,1.04,1000
17:13:43.146,-1.81,-1.89,7.6,-1.46,-0.61,-0.79,0.03,-0.04,1.04,1000
17:13:43.153,-1.87,-1.87,7.59,-1.1,-1.16,-1.95,0.03,-0.04,1.04,1000
17:13:43.168,-1.96,-1.86,7.57,0.12,-1.89,-1.83,0.05,-0.05,1.02,1000
17:13:43.178,-2.03,-2.01,7.56,0.61,-1.65,-0.12,0.06,-0.02,1.04,1000
17:13:43.186,-1.94,-2.16,7.56,0.55,-1.22,0.55,0.03,-0.02,1.03,1000
17:13:43.197,-1.84,-2.17,7.57,-0.55,-1.22,0.67,0.03,-0.04,1.04,1000
17:13:43.208,-1.86,-2.11,7.57,-1.83,-1.46,0.49,0.04,-0.03,1.02,1000
17:13:43.219,-1.85,-2.07,7.57,-2.93,-1.83,0.24,0.03,-0.03,1.04,1000
17:13:43.230,-1.87,-2.01,7.57,-4.39,-2.38,-0.24,0.02,-0.03,1.02,1000
17:13:43.241,-1.87,-1.93,7.57,-4.82,-3.05,-0.67,0.03,-0.02,1.03,1000
17:13:43.262,-1.81,-1.88,7.57,-5.49,-3.48,-0.12,0.03,-0.02,1.02,1000
17:13:43.267,-1.79,-1.84,7.57,-6.4,-3.54,0.55,0.03,-0.03,1.02,1000
17:13:43.274,-1.82,-1.8,7.58,-7.2,-3.23,1.52,0.03,-0.04,1.01,1000
17:13:43.285,-1.94,-1.85,7.6,-6.77,-2.93,2.87,0.05,-0.05,1.02,1000
17:13:43.297,-2.09,-2.04,7.64,-5.79,-1.95,4.02,0.07,-0.04,1.03,1000
17:13:43.307,-2.14,-2.29,7.68,-3.17,-0.06,3.35,0.06,-0.04,1.04,1000
17:13:43.317,-2.2,-2.43,7.71,-0.67,1.71,1.22,0.04,-0.05,1.05,1000
17:13:43.332,-2.27,-2.38,7.71,1.4,2.74,-2.01,0.02,-0.05,1.04,1000
17:13:43.341,-2.36,-2.19,7.68,2.56,2.74,-4.15,0.03,-0.06,1.04,1000
17:13:43.351,-2.45,-2.04,7.63,2.56,1.89,-4.45,0.03,-0.04,1.03,1000
17:13:43.376,-2.46,-1.96,7.58,2.01,0.67,-3.05,0.04,-0.05,1.03,1000
17:13:43.377,-2.47,-1.97,7.56,1.16,-0.61,-1.04,0.04,-0.05,1.02,1000
17:13:43.385,-2.45,-2.07,7.56,0.12,-0.98,1.22,0.06,-0.03,1.04,1000
17:13:43.395,-2.35,-2.17,7.58,-0.55,-0.85,1.34,0.03,-0.03,1.04,1000
17:13:43.406,-2.27,-2.13,7.58,-1.46,-0.49,-0.37,0.02,-0.04,1.04,1000
17:13:43.417,-2.28,-1.92,7.57,-2.56,-0.3,-2.62,0.02,-0.04,1.02,1000
17:13:43.432,-2.32,-1.78,7.54,-3.54,-0.3,-3.05,0.03,-0.04,1.03,1000
17:13:43.444,-2.35,-1.72,7.51,-4.02,-0.91,-2.13,0.04,-0.05,1.02,1000
17:13:43.454,-2.39,-1.77,7.49,-4.02,-1.34,-0.37,0.05,-0.03,1.04,1000
17:13:43.477,-2.36,-1.96,7.5,-2.8,-1.04,1.16,0.06,-0.03,1.04,1000
17:13:43.477,-2.29,-2.16,7.51,-1.46,0.37,1.1,0.05,-0.04,1.04,1000
17:13:43.483,-2.25,-2.24,7.52,-0.43,2.01,-0.61,0.04,-0.05,1.04,1000
17:13:43.494,-2.28,-2.2,7.5,0.0,2.99,-3.05,0.03,-0.05,1.04,1000
17:13:43.505,-2.39,-2.09,7.46,0.61,3.66,-4.39,0.04,-0.06,1.02,1000
17:13:43.518,-2.5,-2.07,7.41,1.16,3.78,-4.15,0.05,-0.04,1.03,1000
17:13:43.530,-2.49,-2.1,7.37,1.22,3.41,-3.78,0.04,-0.04,1.04,1000
17:13:43.540,-2.45,-2.07,7.33,1.34,2.56,-3.72,0.02,-0.04,1.03,1000
17:13:43.551,-2.4,-1.93,7.28,0.98,1.28,-3.9,0.02,-0.04,1.03,1000
17:13:43.560,-2.34,-1.8,7.24,0.12,-0.3,-3.41,0.02,-0.04,1.02,1000
17:13:43.580,-2.33,-1.7,7.21,-0.49,-1.59,-2.56,0.03,-0.05,1.02,1000
17:13:43.586,-2.33,-1.66,7.19,-1.34,-2.2,-1.4,0.03,-0.03,1.03,1000
17:13:43.593,-2.27,-1.64,7.18,-2.32,-2.5,-0.67,0.02,-0.04,1.02,1000
17:13:43.604,-2.25,-1.55,7.17,-2.87,-2.2,-0.49,0.01,-0.04,1.02,1000
17:13:43.615,-2.27,-1.44,7.17,-3.6,-1.83,0.3,0.03,-0.04,1.02,1000
17:13:43.626,-2.29,-1.42,7.17,-3.84,-1.1,1.04,0.03,-0.04,1.02,1000
17:13:43.638,-2.32,-1.43,7.18,-3.54,0.18,1.28,0.03,-0.05,1.01,1000
17:13:43.651,-2.39,-1.5,7.2,-2.62,1.16,1.52,0.04,-0.04,1.02,1000
17:13:43.665,-2.4,-1.61,7.21,-1.71,2.5,0.98,0.04,-0.04,1.03,1000
17:13:43.673,-2.4,-1.65,7.22,-0.73,2.87,-0.3,0.02,-0.05,1.03,1000
17:13:43.684,-2.45,-1.6,7.21,-0.24,2.38,-1.83,0.02,-0.05,1.02,1000
17:13:43.695,-2.5,-1.54,7.18,0.0,1.28,-2.07,0.02,-0.05,1.02,1000
17:13:43.706,-2.56,-1.51,7.16,-0.49,-0.3,-1.46,0.03,-0.05,1.02,1000
17:13:43.719,-2.61,-1.53,7.15,-0.55,-1.46,-0.37,0.04,-0.05,1.01,1000
17:13:43.725,-2.64,-1.65,7.15,-0.85,-1.77,1.52,0.05,-0.04,1.04,1000
17:13:43.736,-2.57,-1.84,7.17,-0.79,-1.46,1.77,0.04,-0.04,1.03,1000
17:13:43.751,-2.56,-1.94,7.19,-0.79,-0.18,0.55,0.03,-0.04,1.04,1000
17:13:43.760,-2.57,-1.95,7.19,-1.28,0.61,-1.16,0.03,-0.05,1.03,1000
17:13:43.770,-2.62,-1.88,7.17,-2.01,1.16,-2.62,0.03,-0.05,1.03,1000
17:13:43.793,-2.71,-1.79,7.13,-2.2,1.1,-3.54,0.04,-0.06,1.01,1000
17:13:43.793,-2.78,-1.8,7.09,-2.01,0.24,-2.8,0.04,-0.05,1.03,1000
17:13:43.802,-2.79,-1.88,7.07,-0.24,-0.67,-1.89,0.04,-0.06,1.02,1000
17:13:43.813,-2.77,-1.94,7.05,2.56,-2.13,-1.59,0.03,-0.04,1.04,1000
17:13:43.824,-2.64,-1.94,7.03,5.55,-3.78,-1.22,0.02,-0.03,1.04,1000
17:13:43.863,-2.45,-1.89,7.02,8.96,-6.04,-1.22,0.02,-0.05,1.04,1000
17:13:43.863,-2.32,-1.87,7.01,11.89,-8.17,-0.06,0.03,-0.05,1.06,1000
17:13:43.864,-2.2,-1.87,7.01,14.02,-9.7,0.98,0.02,-0.05,1.05,1000
17:13:43.894,-2.2,-1.82,7.03,15.18,-9.57,1.95,0.03,-0.07,1.05,1000
17:13:43.913,-2.24,-1.84,7.06,15.79,-8.17,3.6,0.04,-0.05,1.04,1000
17:13:43.914,-2.2,-1.95,7.11,14.76,-6.28,5.06,0.05,-0.05,1.05,1000
17:13:43.914,-2.12,-2.09,7.17,13.11,-3.78,5.79,0.05,-0.02,1.04,1000
17:13:43.915,-1.98,-2.25,7.23,12.01,-1.04,5.18,0.06,-0.04,1.03,1000
17:13:43.923,-1.82,-2.4,7.28,10.67,1.4,3.84,0.04,-0.0,1.03,1000
17:13:43.953,-1.55,-2.41,7.31,7.93,2.38,0.43,0.02,-0.02,1.02,1000
17:13:43.955,-1.33,-2.26,7.3,3.84,2.38,-2.32,0.02,-0.01,1.01,1000
17:13:43.956,-1.15,-2.08,7.26,-1.22,1.28,-4.63,0.02,0.0,1.0,1000
17:13:43.991,-1.02,-1.93,7.21,-5.24,-0.55,-4.82,0.04,-0.02,0.98,1000
17:13:44.002,-1.0,-2.02,7.17,-8.17,-2.26,-2.62,0.07,0.0,0.99,1000
17:13:44.003,-0.89,-2.34,7.15,-10.55,-3.23,-0.24,0.06,0.0,1.02,1000
17:13:44.004,-0.85,-2.57,7.15,-11.77,-3.35,-0.73,0.03,-0.02,1.02,1000
17:13:44.011,-0.94,-2.56,7.13,-11.95,-3.05,-2.74,0.03,-0.03,1.02,1000
17:13:44.022,-1.15,-2.4,7.09,-11.52,-2.26,-5.12,0.02,-0.04,1.02,1000
17:13:44.051,-1.44,-2.22,7.03,-10.67,-1.46,-6.28,0.03,-0.06,1.01,1000
17:13:44.051,-1.72,-2.18,6.96,-11.04,-0.67,-5.3,0.06,-0.03,1.03,1000
17:13:44.057,-1.9,-2.24,6.91,-10.73,-0.06,-3.72,0.04,-0.04,1.02,1000
17:13:44.066,-2.09,-2.29,6.88,-10.24,0.55,-2.5,0.05,-0.05,1.03,1000
17:13:44.092,-2.31,-2.41,6.85,-7.56,1.22,-0.91,0.06,-0.06,1.01,1000
17:13:44.093,-2.44,-2.61,6.85,-5.55,1.52,0.18,0.05,-0.04,1.05,1000
17:13:44.099,-2.44,-2.66,6.85,-3.78,1.59,-0.67,0.03,-0.05,1.02,1000
17:13:44.110,-2.48,-2.54,6.84,-2.32,1.65,-2.2,0.03,-0.05,1.04,1000
17:13:44.121,-2.55,-2.37,6.81,-1.65,1.04,-2.68,0.03,-0.05,1.02,1000
17:13:44.132,-2.58,-2.25,6.78,-2.2,0.3,-2.93,0.03,-0.04,1.04,1000
17:13:44.143,-2.6,-2.1,6.75,-3.54,0.06,-2.13,0.03,-0.04,1.01,1000
17:13:44.154,-2.6,-2.06,6.73,-4.45,0.37,-0.67,0.05,-0.04,1.02,1000
17:13:44.196,-2.58,-2.21,6.73,-4.88,1.77,1.34,0.07,-0.04,1.02,1000
17:13:44.208,-2.53,-2.35,6.75,-4.57,3.17,1.71,0.03,-0.03,1.04,1000
17:13:44.209,-2.5,-2.32,6.77,-4.27,3.6,0.43,0.03,-0.05,1.03,1000
17:13:44.209,-2.56,-2.18,6.76,-3.11,3.29,-1.22,0.03,-0.05,1.03,1000
17:13:44.210,-2.64,-2.06,6.75,-2.56,1.71,-2.01,0.03,-0.06,1.04,1000
17:13:44.221,-2.72,-1.94,6.72,-2.5,-0.43,-2.07,0.02,-0.05,1.03,1000
17:13:44.232,-2.81,-1.86,6.7,-1.95,-3.05,-1.34,0.04,-0.06,1.03,1000
17:13:44.243,-2.88,-1.92,6.7,-1.34,-5.55,0.49,0.04,-0.04,1.04,1000
17:13:44.275,-2.85,-2.05,6.71,-1.34,-7.44,1.59,0.04,-0.05,1.05,1000
17:13:44.307,-2.8,-2.16,6.72,-1.34,-7.74,0.73,0.03,-0.05,1.04,1000
17:13:44.313,-2.79,-2.16,6.72,-1.89,-7.01,-0.85,0.03,-0.06,1.03,1000
17:13:44.327,-2.84,-2.17,6.71,-2.32,-5.55,-1.95,0.05,-0.05,1.03,1000
17:13:44.340,-2.87,-2.24,6.68,-2.87,-3.66,-2.32,0.05,-0.05,1.03,1000
17:13:44.341,-2.86,-2.33,6.66,-3.6,-2.01,-2.26,0.05,-0.05,1.03,1000
17:13:44.343,-2.87,-2.38,6.63,-3.96,-0.85,-2.2,0.04,-0.04,1.03,1000
17:13:44.360,-2.86,-2.4,6.61,-3.41,-0.3,-1.89,0.04,-0.05,1.02,1000
17:13:44.360,-2.84,-2.41,6.59,-2.87,-0.18,-1.1,0.04,-0.05,1.02,1000
17:13:44.378,-2.83,-2.43,6.58,-2.01,-0.67,-0.55,0.05,-0.05,1.02,1000
17:13:44.403,-2.85,-2.46,6.58,-1.89,-0.3,0.18,0.05,-0.06,1.03,1000
17:13:44.411,-2.89,-2.51,6.58,-1.52,0.79,0.43,0.05,-0.05,1.03,1000
17:13:44.415,-2.92,-2.52,6.58,-1.22,1.59,0.0,0.03,-0.06,1.03,1000
17:13:44.425,-3.0,-2.45,6.58,-0.85,2.44,-0.49,0.04,-0.07,1.02,1000
17:13:44.425,-3.1,-2.46,6.58,-0.06,3.05,0.37,0.07,-0.06,1.02,1000
17:13:44.425,-3.11,-2.6,6.59,0.91,3.48,0.91,0.05,-0.04,1.04,1000
17:13:44.429,-3.05,-2.61,6.59,0.49,3.17,-0.49,0.03,-0.06,1.04,1000
17:13:44.440,-3.03,-2.45,6.58,0.06,1.83,-2.56,0.02,-0.05,1.03,1000
17:13:44.471,-3.03,-2.22,6.54,-0.85,-0.12,-3.6,0.02,-0.05,1.02,1000
17:13:44.473,-3.04,-2.03,6.5,-1.83,-2.68,-2.62,0.04,-0.06,1.01,1000
17:13:44.476,-3.01,-2.07,6.48,-2.5,-4.27,-0.79,0.05,-0.04,1.02,1000
17:13:44.514,-2.94,-2.18,6.48,-3.35,-4.45,0.24,0.05,-0.04,1.02,1000
17:13:44.514,-2.87,-2.26,6.49,-3.72,-3.66,0.49,0.03,-0.05,1.03,1000
17:13:44.529,-2.86,-2.22,6.49,-4.09,-2.38,0.0,0.03,-0.06,1.02,1000
17:13:44.548,-2.91,-2.18,6.49,-4.33,-0.91,0.43,0.04,-0.06,1.02,1000
17:13:44.583,-2.99,-2.21,6.5,-4.02,0.0,1.65,0.05,-0.06,1.02,1000
17:13:44.585,-3.08,-2.32,6.52,-2.5,0.43,3.05,0.06,-0.05,1.03,1000
17:13:44.585,-3.1,-2.41,6.56,-0.49,0.12,4.02,0.06,-0.06,1.04,1000
17:13:44.585,-3.15,-2.55,6.61,3.6,-0.24,4.02,0.06,-0.08,1.04,1000
17:13:44.585,-3.21,-2.71,6.65,7.8,-0.91,3.78,0.07,-0.05,1.06,1000
17:13:44.610,-3.17,-2.87,6.68,10.43,-1.34,2.26,0.05,-0.06,1.07,1000
17:13:44.610,-3.17,-2.93,6.7,12.32,-1.4,-0.06,0.06,-0.09,1.06,1000
17:13:44.619,-3.27,-3.06,6.69,14.82,-1.59,-1.28,0.08,-0.07,1.05,1000
17:13:44.619,-3.2,-3.27,6.68,17.32,-1.71,-1.95,0.08,-0.06,1.06,1000
17:13:44.627,-3.05,-3.43,6.65,20.0,-1.71,-3.11,0.06,-0.06,1.06,1000
17:13:44.640,-2.86,-3.46,6.61,21.16,-1.59,-4.57,0.05,-0.05,1.06,1000
17:13:44.649,-2.63,-3.35,6.55,20.49,-0.85,-6.52,0.02,-0.03,1.04,1000
17:13:44.675,-2.35,-3.02,6.47,17.87,0.3,-7.56,0.02,-0.03,1.02,1000
17:13:44.676,-2.08,-2.75,6.39,13.6,1.1,-6.46,0.03,-0.01,1.0,1000
17:13:44.710,-1.74,-2.54,6.33,7.87,1.22,-3.96,0.04,-0.0,0.99,1000
17:13:44.718,-1.45,-2.54,6.31,4.39,1.4,0.91,0.09,-0.01,0.98,1000
17:13:44.720,-1.15,-2.78,6.35,0.61,1.89,5.37,0.05,0.03,1.01,1000
17:13:44.720,-0.88,-2.85,6.41,-3.9,2.01,6.4,0.04,-0.02,1.01,1000
17:13:44.726,-0.81,-2.79,6.47,-5.43,2.2,5.55,0.02,-0.01,1.01,1000
17:13:44.737,-0.87,-2.56,6.53,-6.28,1.83,3.35,0.03,-0.04,1.02,1000
17:13:44.749,-1.03,-2.42,6.56,-6.59,1.28,1.52,0.03,-0.02,1.02,1000
17:13:44.759,-1.16,-2.26,6.56,-7.56,-0.06,-0.67,0.02,-0.03,1.03,1000
17:13:44.770,-1.27,-2.09,6.55,-7.74,-0.98,-2.26,0.03,-0.04,1.01,1000
17:13:44.812,-1.5,-2.08,6.52,-7.26,-1.52,-1.77,0.06,-0.02,1.02,1000
17:13:44.823,-1.57,-2.22,6.51,-5.98,-1.65,-0.98,0.05,-0.02,1.02,1000
17:13:44.834,-1.61,-2.32,6.5,-5.91,-1.71,-1.22,0.04,-0.05,1.03,1000
17:13:44.834,-1.77,-2.34,6.48,-5.0,-1.22,-1.95,0.05,-0.04,1.02,1000
17:13:44.856,-1.86,-2.41,6.46,-4.27,-0.43,-2.38,0.04,-0.03,1.04,1000
17:13:44.857,-1.94,-2.38,6.43,-3.9,0.37,-3.05,0.03,-0.05,1.02,1000
17:13:44.890,-2.09,-2.29,6.39,-4.02,0.98,-3.35,0.04,-0.04,1.02,1000
17:13:44.890,-2.16,-2.21,6.35,-4.63,0.98,-3.05,0.03,-0.04,1.02,1000
17:13:44.891,-2.2,-2.11,6.32,-5.49,0.79,-2.44,0.03,-0.03,1.02,1000
17:13:44.892,-2.23,-1.99,6.3,-6.77,-0.12,-0.55,0.04,-0.04,1.01,1000
17:13:44.892,-2.27,-2.02,6.31,-7.56,-1.1,1.95,0.06,-0.03,1.02,1000
17:13:44.906,-2.23,-2.17,6.34,-8.48,-1.28,3.84,0.04,-0.03,1.04,1000
17:13:44.914,-2.22,-2.21,6.39,-8.54,-1.16,3.29,0.03,-0.04,1.03,1000
17:13:44.924,-2.28,-2.16,6.42,-7.87,-0.24,2.32,0.03,-0.04,1.02,1000
17:13:44.935,-2.37,-2.1,6.44,-7.38,0.37,1.52,0.03,-0.05,1.02,1000
17:13:44.961,-2.48,-2.07,6.46,-7.5,0.24,1.4,0.04,-0.05,1.02,1000
17:13:44.961,-2.63,-2.13,6.48,-7.2,-0.12,2.62,0.06,-0.05,1.02,1000
17:13:44.989,-2.72,-2.27,6.51,-5.49,-0.55,4.15,0.07,-0.04,1.03,1000
17:13:44.992,-2.77,-2.54,6.56,-3.41,-1.59,4.82,0.07,-0.06,1.04,1000
17:13:45.018,-2.86,-2.77,6.62,-1.16,-2.44,4.76,0.06,-0.06,1.05,1000
17:13:45.018,-2.91,-2.89,6.66,0.79,-2.99,2.26,0.04,-0.07,1.05,1000
17:13:45.043,-3.03,-2.83,6.67,0.91,-3.41,-0.67,0.04,-0.07,1.05,1000
17:13:45.043,-3.14,-2.74,6.65,-0.24,-3.66,-2.74,0.04,-0.05,1.03,1000
17:13:45.068,-3.19,-2.72,6.62,-0.91,-3.6,-3.11,0.08,-0.08,1.01,1000
17:13:45.071,-3.23,-2.93,6.6,-2.01,-2.68,-0.98,0.09,-0.04,1.03,1000
17:13:45.073,-3.17,-3.33,6.59,-2.38,-0.24,-0.24,0.1,-0.06,1.03,1000
17:13:45.073,-3.16,-3.6,6.59,-1.71,2.44,-0.55,0.09,-0.04,1.05,1000
17:13:45.078,-3.07,-3.76,6.57,-1.16,5.3,-2.93,0.06,-0.06,1.04,1000
17:13:45.091,-3.1,-3.67,6.51,-0.24,6.89,-7.07,0.04,-0.07,1.04,1000
17:13:45.103,-3.21,-3.42,6.43,0.0,7.2,-9.39,0.04,-0.06,1.03,1000
17:13:45.117,-3.28,-3.17,6.32,0.73,6.28,-10.0,0.05,-0.06,1.03,1000
17:13:45.123,-3.32,-3.02,6.21,1.22,4.63,-8.41,0.05,-0.05,1.03,1000
17:13:45.135,-3.22,-2.88,6.13,1.34,3.17,-7.38,0.04,-0.04,1.04,1000
17:13:45.144,-3.08,-2.67,6.05,1.71,1.83,-5.79,0.02,-0.04,1.03,1000
17:13:45.170,-2.97,-2.42,5.99,2.32,1.1,-4.7,0.03,-0.05,1.03,1000
17:13:45.190,-2.87,-2.25,5.95,2.68,0.49,-2.8,0.02,-0.04,1.03,1000
17:13:45.190,-2.78,-2.04,5.93,1.77,-0.3,-1.46,0.02,-0.05,1.04,1000
17:13:45.238,-2.71,-1.85,5.92,1.46,-0.61,-0.24,0.02,-0.04,1.03,1000
17:13:45.238,-2.63,-1.68,5.92,1.28,-0.85,0.79,0.02,-0.05,1.02,1000
17:13:45.238,-2.58,-1.51,5.93,1.04,-1.16,1.71,0.02,-0.04,1.02,1000
17:13:45.249,-2.52,-1.37,5.96,1.04,-1.83,2.62,0.02,-0.04,1.03,1000
17:13:45.265,-2.48,-1.26,5.99,1.28,-2.68,3.29,0.02,-0.05,1.02,1000
17:13:45.265,-2.47,-1.24,6.03,0.73,-3.29,3.72,0.02,-0.04,1.03,1000
17:13:45.266,-2.43,-1.24,6.07,0.55,-3.54,3.9,0.03,-0.05,1.01,1000
17:13:45.267,-2.43,-1.32,6.11,0.06,-3.05,3.84,0.04,-0.04,1.03,1000
17:13:45.298,-2.42,-1.4,6.16,0.49,-1.95,3.6,0.04,-0.06,1.02,1000
17:13:45.340,-2.52,-1.6,6.19,2.56,-0.3,3.35,0.08,-0.06,1.04,1000
17:13:45.340,-2.58,-1.99,6.23,4.76,1.46,3.23,0.06,-0.04,1.05,1000
17:13:45.369,-2.49,-2.16,6.25,6.22,2.62,0.18,0.02,-0.07,1.06,1000
17:13:45.369,-2.58,-2.06,6.24,7.13,3.41,-2.87,0.02,-0.06,1.03,1000
17:13:45.392,-2.63,-1.9,6.2,6.65,3.66,-4.09,0.03,-0.04,1.04,1000
17:13:45.397,-2.58,-1.78,6.16,4.57,3.29,-3.29,0.03,-0.04,1.02,1000
17:13:45.398,-2.43,-1.65,6.13,1.34,2.01,-0.55,0.02,-0.03,1.01,1000
17:13:45.400,-2.28,-1.59,6.14,-1.65,0.67,2.13,0.03,-0.02,1.01,1000
17:13:45.429,-2.13,-1.52,6.18,-5.12,-1.22,5.73,0.02,-0.02,1.0,1000
17:13:45.452,-2.07,-1.45,6.26,-7.44,-3.54,8.84,0.03,-0.04,1.0,1000
17:13:45.452,-2.11,-1.48,6.37,-8.35,-5.37,11.46,0.04,-0.03,1.01,1000
17:13:45.476,-2.09,-1.64,6.51,-8.72,-6.95,12.99,0.05,-0.04,1.02,1000
17:13:45.476,-2.14,-1.89,6.65,-7.07,-7.44,12.74,0.07,-0.06,1.02,1000
17:13:45.492,-2.25,-2.18,6.78,-4.09,-6.22,11.22,0.07,-0.04,1.05,1000
17:13:45.510,-2.27,-2.47,6.88,-1.77,-3.84,7.93,0.06,-0.05,1.05,1000
17:13:45.510,-2.36,-2.66,6.95,0.37,-0.98,3.23,0.05,-0.07,1.05,1000
17:13:45.515,-2.55,-2.76,6.96,1.95,1.52,-0.67,0.06,-0.06,1.04,1000
17:13:45.515,-2.7,-2.84,6.94,2.62,2.38,-2.2,0.06,-0.06,1.03,1000
17:13:45.516,-2.83,-2.97,6.92,3.48,2.5,-1.83,0.09,-0.06,1.03,1000
17:13:45.516,-2.87,-3.21,6.91,4.27,1.95,-0.12,0.09,-0.04,1.05,1000
17:13:45.517,-2.76,-3.45,6.91,4.33,1.46,0.24,0.05,-0.04,1.03,1000
17:13:45.525,-2.67,-3.44,6.91,4.09,1.1,-1.04,0.04,-0.05,1.03,1000
17:13:45.529,-2.66,-3.33,6.89,3.41,0.18,-1.65,0.04,-0.06,1.02,1000
17:13:45.551,-2.67,-3.2,6.88,2.13,-0.91,-1.16,0.06,-0.05,1.02,1000
17:13:45.552,-2.64,-3.21,6.87,0.37,-1.89,0.24,0.06,-0.03,1.02,1000
17:13:45.562,-2.52,-3.24,6.88,-0.73,-2.26,1.1,0.05,-0.03,1.02,1000
17:13:45.573,-2.43,-3.24,6.89,-1.71,-1.52,1.59,0.06,-0.04,1.01,1000
17:13:45.585,-2.33,-3.28,6.91,-1.95,0.3,1.77,0.07,-0.03,1.01,1000
17:13:45.595,-2.22,-3.34,6.93,-2.5,2.74,1.28,0.06,-0.03,1.02,1000
17:13:45.608,-2.08,-3.34,6.94,-3.11,5.0,0.73,0.06,-0.03,1.01,1000
17:13:45.624,-2.02,-3.28,6.95,-3.29,6.59,-0.12,0.05,-0.04,1.01,1000
17:13:45.642,-2.1,-3.13,6.95,-3.84,6.95,-0.3,0.04,-0.05,1.01,1000
17:13:45.643,-2.32,-2.91,6.94,-3.9,5.79,-0.55,0.04,-0.07,1.02,1000
17:13:45.650,-2.62,-2.76,6.94,-3.6,3.48,-0.24,0.05,-0.06,1.03,1000
17:13:45.679,-2.76,-2.65,6.93,-2.68,1.04,-0.91,0.03,-0.05,1.04,1000
17:13:45.680,-2.83,-2.48,6.92,-1.4,-1.4,-2.56,0.02,-0.06,1.04,1000
17:13:45.731,-2.91,-2.27,6.88,-0.67,-3.05,-4.33,0.02,-0.05,1.04,1000
17:13:45.753,-2.95,-2.11,6.83,-0.67,-4.21,-4.88,0.02,-0.06,1.04,1000
17:13:45.753,-2.99,-1.98,6.78,-1.34,-4.63,-4.02,0.04,-0.04,1.03,1000
17:13:45.753,-2.93,-1.96,6.74,-1.83,-4.45,-2.87,0.03,-0.03,1.03,1000
17:13:45.776,-2.8,-1.96,6.72,-1.83,-3.78,-0.61,0.04,-0.04,1.02,1000
17:13:45.776,-2.68,-2.02,6.73,-1.77,-2.62,1.77,0.04,-0.03,1.03,1000
17:13:45.793,-2.56,-2.08,6.75,-1.71,-1.95,3.35,0.04,-0.06,1.02,1000
17:13:45.813,-2.56,-2.16,6.79,-1.1,-1.1,4.33,0.05,-0.04,1.03,1000
17:13:45.814,-2.53,-2.24,6.84,-0.73,-0.37,3.66,0.03,-0.05,1.04,1000
17:13:45.814,-2.57,-2.17,6.87,-0.98,-0.79,1.1,0.02,-0.07,1.04,1000
17:13:45.814,-2.68,-2.06,6.87,-0.91,-1.65,-0.49,0.03,-0.05,1.03,1000
17:13:45.840,-2.74,-1.98,6.86,-1.4,-2.93,-1.46,0.03,-0.05,1.03,1000
17:13:45.840,-2.79,-1.91,6.84,-2.5,-4.39,-1.52,0.03,-0.05,1.02,1000
17:13:45.840,-2.79,-1.91,6.83,-4.15,-5.49,-0.49,0.04,-0.04,1.03,1000
17:13:45.840,-2.72,-1.99,6.83,-5.24,-5.98,0.73,0.04,-0.03,1.02,1000
17:13:45.856,-2.68,-2.05,6.85,-6.71,-5.73,1.77,0.03,-0.05,1.02,1000
17:13:45.873,-2.69,-2.09,6.87,-7.32,-5.0,2.62,0.04,-0.04,1.01,1000
17:13:45.873,-2.71,-2.15,6.9,-7.13,-3.84,3.6,0.05,-0.05,1.01,1000
17:13:45.881,-2.75,-2.25,6.95,-6.34,-2.93,4.45,0.06,-0.07,1.01,1000
17:13:45.913,-2.9,-2.54,7.0,-3.66,-1.71,5.73,0.09,-0.06,1.02,1000
17:13:45.913,-3.0,-2.98,7.07,0.43,-0.12,5.85,0.08,-0.06,1.04,1000
17:13:45.941,-3.02,-3.25,7.12,3.66,0.61,3.72,0.06,-0.06,1.06,1000
17:13:45.955,-3.04,-3.32,7.14,6.1,1.71,-0.3,0.04,-0.09,1.04,1000
17:13:45.955,-3.19,-3.17,7.12,6.89,2.5,-4.21,0.03,-0.08,1.04,1000
17:13:45.957,-3.32,-2.96,7.06,5.91,2.74,-5.98,0.05,-0.07,1.02,1000
17:13:45.958,-3.41,-2.85,7.0,4.76,2.68,-5.06,0.07,-0.07,1.01,1000
17:13:45.969,-3.4,-2.95,6.96,2.68,2.01,-1.52,0.07,-0.03,1.02,1000
17:13:45.980,-3.22,-3.07,6.96,0.3,1.22,0.37,0.05,-0.05,1.01,1000
17:13:45.994,-3.15,-3.04,6.97,-1.77,0.37,1.28,0.04,-0.05,1.01,1000
17:13:46.002,-3.12,-2.96,6.98,-3.23,0.0,1.52,0.04,-0.05,1.02,1000
17:13:46.014,-3.1,-2.83,7.0,-4.7,-0.55,0.91,0.03,-0.06,1.02,1000
17:13:46.047,-3.11,-2.64,7.0,-6.22,-1.59,0.43,0.03,-0.06,1.02,1000
17:13:46.047,-3.22,-2.54,7.01,-5.79,-2.56,1.16,0.06,-0.08,1.01,1000
17:13:46.048,-3.33,-2.65,7.03,-4.33,-2.56,2.26,0.07,-0.04,1.04,1000
17:13:46.059,-3.28,-2.82,7.05,-2.87,-1.22,0.79,0.05,-0.06,1.04,1000
17:13:46.069,-3.29,-2.82,7.05,-1.1,0.12,-1.83,0.04,-0.07,1.04,1000
17:13:46.080,-3.38,-2.76,7.01,0.61,1.52,-4.27,0.06,-0.07,1.03,1000
17:13:46.090,-3.39,-2.76,6.96,1.46,2.5,-5.0,0.05,-0.05,1.04,1000
17:13:46.101,-3.35,-2.68,6.9,1.89,2.38,-5.61,0.03,-0.07,1.03,1000
17:13:46.118,-3.33,-2.54,6.84,1.59,1.77,-5.0,0.03,-0.05,1.03,1000
17:13:46.123,-3.25,-2.39,6.79,0.91,0.49,-3.84,0.02,-0.05,1.03,1000
17:13:46.144,-3.19,-2.16,6.76,-0.12,-1.16,-2.26,0.02,-0.06,1.02,1000
17:13:46.148,-3.16,-1.97,6.75,-1.46,-2.26,0.37,0.03,-0.05,1.02,1000
17:13:46.157,-3.12,-1.9,6.76,-2.5,-2.93,3.11,0.04,-0.05,1.02,1000
17:13:46.167,-3.05,-1.94,6.81,-3.54,-2.8,5.0,0.04,-0.03,1.03,1000
17:13:46.178,-2.92,-1.95,6.87,-4.39,-1.77,5.18,0.03,-0.05,1.03,1000
17:13:46.192,-2.9,-1.91,6.92,-4.09,-0.24,4.39,0.04,-0.06,1.02,1000
17:13:46.200,-2.95,-1.93,6.97,-3.6,0.73,4.27,0.05,-0.06,1.03,1000
17:13:46.211,-3.0,-2.01,7.01,-3.6,1.22,3.54,0.04,-0.06,1.04,1000
17:13:46.222,-3.1,-2.03,7.05,-3.05,0.49,2.44,0.04,-0.07,1.03,1000
17:13:46.238,-3.18,-2.08,7.07,-1.95,-0.49,2.32,0.05,-0.05,1.03,1000
17:13:46.252,-3.18,-2.17,7.1,-0.49,-2.13,1.95,0.05,-0.06,1.03,1000
17:13:46.256,-3.18,-2.27,7.12,0.0,-3.17,1.65,0.04,-0.06,1.04,1000
17:13:46.266,-3.22,-2.39,7.13,0.12,-3.48,1.28,0.06,-0.07,1.03,1000
17:13:46.277,-3.3,-2.51,7.14,0.0,-3.11,0.73,0.05,-0.07,1.04,1000
17:13:46.288,-3.38,-2.6,7.15,-0.91,-2.13,0.67,0.06,-0.07,1.02,1000
17:13:46.301,-3.47,-2.7,7.16,-2.13,-1.34,0.79,0.06,-0.06,1.02,1000
17:13:46.313,-3.54,-2.79,7.17,-2.62,-0.85,1.34,0.07,-0.07,1.02,1000
17:13:46.321,-3.58,-2.97,7.19,-2.68,-0.43,2.87,0.08,-0.04,1.03,1000
17:13:46.334,-3.49,-3.18,7.22,-2.32,-0.12,2.8,0.06,-0.06,1.03,1000
17:13:46.350,-3.49,-3.24,7.25,-1.52,0.0,2.07,0.06,-0.08,1.03,1000
17:13:46.378,-3.56,-3.34,7.27,-0.98,0.24,1.83,0.08,-0.06,1.03,1000
17:13:46.405,-3.54,-3.47,7.29,-0.73,0.91,0.98,0.06,-0.06,1.05,1000
17:13:46.405,-3.58,-3.49,7.29,-0.43,1.16,-0.67,0.05,-0.08,1.03,1000
17:13:46.405,-3.65,-3.43,7.27,-0.18,1.16,-2.13,0.06,-0.06,1.03,1000
17:13:46.405,-3.68,-3.42,7.25,0.24,1.04,-2.01,0.07,-0.07,1.03,1000
17:13:46.412,-3.67,-3.46,7.23,0.18,0.24,-1.52,0.06,-0.06,1.03,1000
17:13:46.422,-3.63,-3.46,7.21,-0.3,-0.79,-1.46,0.05,-0.06,1.03,1000
17:13:46.433,-3.55,-3.36,7.19,-0.98,-1.59,-1.22,0.04,-0.06,1.02,1000
17:13:46.445,-3.47,-3.19,7.18,-2.38,-2.5,-1.22,0.04,-0.06,1.03,1000
17:13:46.466,-3.44,-3.07,7.17,-4.33,-3.05,-0.06,0.05,-0.06,1.01,1000
17:13:46.466,-3.47,-3.02,7.17,-5.24,-3.11,1.1,0.05,-0.06,1.01,1000
17:13:46.476,-3.5,-3.02,7.19,-5.91,-2.38,1.95,0.06,-0.06,1.02,1000
17:13:46.487,-3.52,-3.07,7.21,-5.73,-1.1,1.71,0.05,-0.06,1.03,1000
17:13:46.500,-3.54,-3.09,7.23,-5.67,-0.3,0.55,0.05,-0.07,1.03,1000
17:13:46.561,-3.61,-3.06,7.22,-5.06,-0.18,-1.52,0.04,-0.07,1.03,1000
17:13:46.573,-3.7,-2.96,7.2,-4.51,-0.37,-3.66,0.04,-0.08,1.03,1000
17:13:46.573,-3.86,-2.86,7.15,-2.93,-1.16,-4.39,0.06,-0.08,1.02,1000
17:13:46.590,-3.94,-2.92,7.11,-1.28,-1.34,-4.09,0.06,-0.06,1.04,1000
17:13:46.590,-3.93,-2.99,7.06,-0.37,-1.22,-3.78,0.06,-0.08,1.03,1000
17:13:46.590,-3.99,-3.07,7.02,2.01,0.18,-3.11,0.08,-0.08,1.03,1000
17:13:46.590,-4.06,-3.24,6.99,4.39,1.71,-2.38,0.08,-0.09,1.04,1000
17:13:46.590,-4.07,-3.36,6.97,5.55,3.66,-2.93,0.06,-0.06,1.06,1000
17:13:46.596,-3.99,-3.31,6.93,5.91,5.0,-3.96,0.04,-0.08,1.04,1000
17:13:46.607,-4.0,-3.09,6.88,5.24,5.49,-5.06,0.02,-0.08,1.04,1000
17:13:46.656,-4.03,-2.71,6.82,2.87,4.27,-5.06,0.02,-0.07,1.03,1000
17:13:47.212,-5.36,-1.66,1.27,0.91,10.67,5.85,0.03,-0.04,0.95,1110
17:13:47.226,-5.22,-1.48,1.33,-4.15,11.65,6.65,0.14,0.03,0.9,1110
17:13:48.235,-6.01,-1.74,1.4,2.32,-10.18,-3.11,-0.69,-0.51,1.11,1170
17:13:48.248,-6.3,-0.82,1.36,2.07,5.67,-6.89,0.89,0.16,1.07,1170
17:13:48.258,-6.42,-0.41,1.29,4.15,16.71,-5.37,-0.71,-0.45,0.95,1170
17:13:48.299,-6.81,0.61,1.22,13.6,-2.62,-7.93,-0.44,-0.24,1.0,1170
17:13:48.300,-6.66,0.89,1.09,-1.28,-4.88,-9.82,-0.11,-0.2,1.03,1170
17:13:49.262,-6.0,7.65,3.86,-12.26,22.2,24.82,-1.02,-1.02,1.2,1230
17:13:49.273,-5.94,7.99,4.16,15.12,-19.09,28.05,0.45,0.27,0.91,1230
17:13:49.282,-5.84,7.91,4.49,-24.33,18.48,28.54,-0.75,-0.64,1.52,1230
17:13:50.293,-11.94,18.23,41.23,-19.09,15.24,21.77,-0.51,-0.73,0.98,1270
17:13:51.311,-16.73,23.75,53.69,-10.55,-4.02,33.35,-0.78,-0.56,0.64,1270
17:13:51.315,-16.76,23.72,54.08,-11.83,-5.98,37.93,-0.64,-0.48,0.9,1270
17:13:51.327,-16.86,23.9,54.48,-19.82,-9.09,38.48,-0.46,-0.21,0.99,1270
17:13:51.337,-16.89,24.17,54.87,-20.55,-12.8,35.06,-0.3,0.17,1.07,1270
17:13:53.351,23.96,-1.73,109.32,119.45,-181.28,-3.54,-0.41,-0.14,0.43,1000
17:13:53.361,26.81,-6.73,109.41,170.3,-189.7,15.49,0.09,-0.31,-1.67,1000
17:13:53.372,26.09,-8.32,109.55,94.57,-161.4,3.54,0.24,0.78,0.35,1000
17:13:53.383,27.72,-12.16,109.73,-60.49,-20.91,15.43,-0.33,-0.03,-2.56,1000
17:13:53.396,26.63,-12.28,109.95,-165.12,9.09,29.33,0.27,-0.22,0.85,1000
17:13:53.405,25.43,-13.41,110.3,-182.93,29.15,25.06,0.12,1.02,-2.29,1000
17:13:53.416,22.67,-14.02,110.54,-190.49,45.18,12.99,0.45,-0.04,-0.91,1000
17:13:53.427,20.45,-15.59,110.71,-194.51,93.84,11.22,0.85,0.14,-1.96,1000
17:13:53.438,18.34,-15.86,110.8,-197.93,105.18,10.67,0.49,0.09,-0.23,1000
17:13:53.449,16.89,-15.86,110.82,-112.93,36.52,0.06,-0.74,-0.86,-1.42,1000
17:13:53.462,14.58,-13.66,110.72,51.95,-122.93,-13.96,0.06,0.3,-0.02,1000
17:13:53.471,13.74,-11.91,110.59,10.49,-92.44,-6.77,0.78,0.76,-0.2,1000
17:13:53.482,14.95,-14.39,110.5,77.44,-25.12,-9.15,0.36,0.07,-0.91,1000
17:13:53.493,16.78,-14.77,110.41,95.12,-21.59,-12.74,0.06,0.63,-1.06,1000
17:13:53.506,19.35,-14.03,110.25,52.68,-5.85,-21.4,0.36,1.08,-1.69,1000
17:13:53.515,22.26,-12.71,109.99,47.07,5.79,-24.88,-0.17,0.33,-1.21,1000
17:13:53.526,23.33,-10.4,109.75,39.33,-2.93,-26.4,-0.04,0.06,-0.73,1000
17:13:53.537,22.33,-8.11,109.46,47.68,-41.83,-22.74,-0.05,-0.22,-0.98,1000
17:13:53.549,18.24,-6.58,109.2,56.65,-49.45,-22.56,-0.05,-0.3,-0.74,1000
17:13:53.558,14.51,-5.7,108.96,65.91,-63.72,-22.2,-0.05,-0.15,-1.09,1000
17:13:53.572,12.74,-5.47,108.72,71.71,-85.3,-23.11,-0.09,-0.05,-0.86,1000
17:13:53.582,12.16,-5.08,108.46,68.9,-92.13,-30.0,0.89,1.12,-2.31,1000
17:13:53.593,12.21,-5.04,108.22,-17.8,15.43,-15.79,-0.04,0.48,-1.42,1000
17:13:53.613,11.18,-3.13,108.12,-14.45,10.24,-6.4,-0.64,-0.52,-0.53,1000
17:13:53.614,8.44,-0.35,108.08,5.79,-23.72,-2.56,-0.01,0.05,-0.98,1000
17:13:53.624,3.75,2.95,108.06,12.13,-22.2,-0.06,-0.88,-0.98,-0.82,1000
17:13:53.637,2.2,4.65,108.07,-28.54,5.18,2.38,-0.24,0.35,-0.91,1000
17:13:53.648,2.99,6.35,108.11,13.78,5.73,4.94,-0.61,-0.41,-1.08,1000
17:13:53.659,4.19,7.59,108.15,1.77,2.26,0.43,-0.02,0.29,-0.84,1000
17:13:53.672,5.68,7.83,108.16,3.29,2.01,0.55,-0.2,-0.02,-1.06,1000
17:13:53.685,6.22,7.65,108.15,8.72,0.61,-1.34,-0.02,-0.01,-1.0,1000
17:13:53.697,6.17,7.39,108.14,-2.87,1.22,-0.3,-0.14,-0.1,-0.94,1000
17:13:53.711,6.05,7.22,108.13,-0.24,-1.22,0.06,-0.13,-0.02,-0.99,1000
17:13:53.720,5.78,6.94,108.13,-2.5,-1.16,0.43,-0.12,-0.02,-0.94,1000
17:13:53.723,5.32,6.75,108.13,-1.83,-0.49,-0.43,-0.18,-0.01,-0.95,1000
17:13:53.736,5.12,6.63,108.12,0.0,0.18,-0.37,-0.09,0.07,-0.99,1000
17:13:53.747,5.08,6.53,108.12,0.79,0.73,-0.61,-0.14,-0.0,-0.96,1000
17:13:53.758,4.9,6.47,108.11,0.85,0.49,-0.49,-0.07,0.06,-0.98,1000
17:13:53.770,4.9,6.39,108.1,-0.55,-0.18,-0.85,-0.11,0.03,-0.97,1000
17:13:53.780,4.74,6.34,108.1,-0.55,-0.3,-0.73,-0.09,0.03,-0.98,1000
17:13:53.791,4.64,6.27,108.09,-0.85,-0.3,-0.61,-0.08,0.04,-0.97,1000
17:13:53.800,4.61,6.23,108.09,0.24,-0.06,-0.49,-0.13,0.0,-0.97,1000
17:13:53.816,4.47,6.21,108.08,0.06,-0.06,-0.67,-0.07,0.04,-0.97,1000
17:13:53.822,4.41,6.19,108.07,0.12,0.18,-0.3,-0.12,0.0,-0.98,1000
17:13:53.835,4.25,6.18,108.07,-0.12,-0.18,-0.18,-0.1,0.02,-0.98,1000
17:13:53.844,4.14,6.13,108.07,-0.79,-0.3,-0.61,-0.11,0.03,-0.97,1000
17:13:53.855,4.07,6.13,108.06,-0.49,-0.43,-0.43,-0.13,0.02,-0.97,1000
17:13:53.866,4.0,6.14,108.05,-0.18,-0.3,-0.37,-0.1,0.02,-0.98,1000
17:13:53.877,4.02,6.16,108.05,-0.06,-0.24,-0.55,-0.13,0.02,-0.97,1000
17:13:53.888,3.91,6.16,108.04,0.06,-0.18,-0.49,-0.09,0.03,-0.97,1000
17:13:53.899,3.9,6.13,108.04,-0.3,-0.06,-0.55,-0.11,0.02,-0.98,1000
17:13:53.914,3.8,6.12,108.03,-0.24,-0.24,-0.37,-0.1,0.01,-0.98,1000
17:13:53.923,3.78,6.08,108.03,-0.24,-0.24,-0.61,-0.1,0.03,-0.98,1000
17:13:53.932,3.77,6.06,108.02,-0.12,-0.24,-0.43,-0.12,0.01,-0.97,1000
17:13:53.943,3.69,6.07,108.02,0.12,-0.24,-0.24,-0.08,0.04,-0.98,1000
17:13:53.956,3.63,6.06,108.01,0.0,-0.06,-0.49,-0.11,0.02,-0.97,1000
17:13:53.965,3.61,6.07,108.0,-0.06,-0.24,-0.49,-0.1,0.02,-0.97,1000
17:13:53.980,3.56,6.04,108.0,-0.37,-0.18,-0.61,-0.1,0.03,-0.98,1000
17:13:53.987,3.6,6.04,107.99,-0.24,-0.06,-0.55,-0.12,0.02,-0.97,1000
17:13:53.999,3.52,6.04,107.98,-0.18,-0.24,-0.55,-0.09,0.04,-0.98,1000
17:13:54.011,3.51,6.04,107.98,-0.18,-0.24,-0.61,-0.11,0.02,-0.97,1000
17:13:54.025,3.48,6.05,107.97,-0.06,-0.18,-0.43,-0.1,0.02,-0.98,1000
17:13:54.033,3.51,6.04,107.97,-0.24,-0.24,-0.55,-0.09,0.03,-0.98,1000
17:13:54.046,3.43,6.03,107.96,-0.3,-0.37,-0.3,-0.1,0.02,-0.97,1000
17:13:54.055,3.44,6.02,107.96,-0.24,-0.3,-0.43,-0.09,0.03,-0.97,1000
17:13:54.064,3.42,6.02,107.95,-0.12,-0.24,-0.61,-0.11,0.02,-0.97,1000
17:13:54.077,3.35,6.03,107.94,-0.3,-0.3,-0.55,-0.1,0.03,-0.97,1000
17:13:54.088,3.34,6.02,107.94,-0.18,-0.12,-0.61,-0.1,0.02,-0.97,1000
17:13:54.097,3.23,6.01,107.93,-0.24,-0.3,-0.49,-0.11,0.02,-0.97,1000
17:13:54.110,3.16,6.01,107.93,-0.24,-0.24,-0.43,-0.1,0.03,-0.97,1000
17:13:54.126,3.17,6.01,107.92,-0.18,-0.18,-0.37,-0.11,0.02,-0.97,1000
17:13:54.131,3.18,6.02,107.92,-0.18,-0.3,-0.61,-0.1,0.03,-0.98,1000
17:13:54.143,3.11,6.01,107.91,-0.3,-0.3,-0.49,-0.11,0.02,-0.98,1000
17:13:54.152,3.08,6.01,107.91,-0.12,-0.3,-0.43,-0.1,0.03,-0.97,1000
17:13:54.163,3.03,6.0,107.9,-0.3,-0.12,-0.61,-0.1,0.03,-0.97,1000
17:13:54.176,3.06,6.0,107.89,-0.24,-0.24,-0.49,-0.1,0.02,-0.97,1000
17:13:54.188,2.99,6.0,107.89,-0.37,-0.3,-0.61,-0.1,0.03,-0.98,1000
17:13:54.196,2.98,6.0,107.88,-0.24,-0.18,-0.43,-0.1,0.02,-0.97,1000
17:13:54.210,2.92,5.99,107.88,-0.37,-0.18,-0.55,-0.1,0.03,-0.97,1000
17:13:54.237,2.94,6.0,107.87,-0.3,-0.18,-0.49,-0.11,0.02,-0.97,1000
17:13:54.237,2.88,6.01,107.87,-0.18,-0.3,-0.61,-0.1,0.02,-0.97,1000
17:13:54.240,2.92,6.01,107.86,-0.24,-0.12,-0.73,-0.1,0.03,-0.97,1000
17:13:54.251,2.88,6.01,107.85,-0.18,-0.18,-0.61,-0.1,0.02,-0.97,1000
17:13:54.265,2.86,6.0,107.85,-0.18,-0.3,-0.43,-0.1,0.03,-0.97,1000
17:13:54.273,2.88,6.0,107.84,-0.24,-0.18,-0.43,-0.1,0.03,-0.97,1000
17:13:54.287,2.8,6.0,107.84,-0.18,-0.3,-0.43,-0.1,0.02,-0.97,1000
17:13:54.295,2.83,5.99,107.83,-0.18,-0.24,-0.37,-0.1,0.03,-0.97,1000
17:13:54.310,2.75,5.99,107.83,-0.24,-0.12,-0.43,-0.1,0.02,-0.97,1000
17:13:54.322,2.75,6.0,107.82,-0.24,-0.12,-0.55,-0.1,0.03,-0.97,1000
17:13:54.331,2.71,6.0,107.82,-0.37,-0.24,-0.49,-0.1,0.02,-0.97,1000
17:13:54.339,2.68,6.01,107.81,-0.37,-0.18,-0.61,-0.1,0.02,-0.97,1000
17:13:54.350,2.62,6.02,107.81,-0.3,-0.12,-0.55,-0.1,0.03,-0.97,1000
17:13:54.362,2.6,6.02,107.8,-0.12,-0.18,-0.55,-0.1,0.02,-0.97,1000
17:13:54.372,2.58,6.01,107.79,-0.24,-0.3,-0.37,-0.1,0.03,-0.97,1000
17:13:54.385,2.54,6.02,107.79,-0.37,-0.06,-0.55,-0.1,0.02,-0.97,1000
17:13:54.394,2.5,6.01,107.78,-0.12,-0.24,-0.61,-0.1,0.03,-0.98,1000
17:13:54.405,2.49,6.0,107.78,-0.24,-0.24,-0.61,-0.1,0.03,-0.97,1000
17:13:54.416,2.47,6.0,107.77,-0.12,-0.3,-0.55,-0.1,0.02,-0.97,1000
17:13:54.428,2.44,5.99,107.77,-0.3,-0.3,-0.43,-0.1,0.03,-0.97,1000
17:13:54.443,2.45,6.0,107.76,-0.18,-0.06,-0.61,-0.1,0.02,-0.97,1000
17:13:54.449,2.45,5.99,107.75,-0.24,-0.3,-0.61,-0.1,0.03,-0.97,1000
17:13:54.460,2.42,5.99,107.75,-0.24,-0.18,-0.55,-0.11,0.02,-0.97,1000
17:13:54.471,2.38,5.99,107.74,-0.24,-0.24,-0.43,-0.1,0.03,-0.97,1000
17:13:54.482,2.39,5.98,107.74,-0.3,-0.24,-0.43,-0.1,0.03,-0.97,1000
17:13:54.493,2.35,5.97,107.73,-0.12,-0.12,-0.73,-0.1,0.02,-0.97,1000
17:13:54.504,2.32,5.96,107.72,-0.43,-0.06,-0.61,-0.1,0.03,-0.97,1000
17:13:54.515,2.3,5.96,107.72,-0.18,-0.24,-0.61,-0.1,0.02,-0.97,1000
17:13:54.528,2.28,5.97,107.71,-0.24,-0.18,-0.43,-0.1,0.02,-0.97,1000
17:13:54.537,2.27,5.97,107.71,-0.18,-0.24,-0.43,-0.1,0.03,-0.97,1000
17:13:54.548,2.25,5.96,107.7,-0.24,-0.06,-0.55,-0.1,0.03,-0.97,1000
17:13:54.559,2.23,5.96,107.69,-0.37,-0.18,-0.43,-0.1,0.03,-0.97,1000
17:13:54.570,2.21,5.97,107.69,-0.3,-0.18,-0.55,-0.1,0.02,-0.97,1000
17:13:54.581,2.2,5.97,107.68,-0.18,-0.12,-0.43,-0.1,0.03,-0.97,1000
17:13:54.594,2.19,5.97,107.68,-0.37,-0.3,-0.55,-0.1,0.02,-0.97,1000
17:13:54.603,2.18,5.97,107.67,-0.43,-0.3,-0.61,-0.1,0.03,-0.97,1000
17:13:54.614,2.18,5.98,107.67,-0.37,-0.18,-0.55,-0.1,0.03,-0.97,1000
17:13:54.638,2.18,5.98,107.66,-0.3,-0.18,-0.61,-0.1,0.03,-0.97,1000
17:13:54.638,2.17,5.98,107.65,-0.3,-0.24,-0.37,-0.1,0.03,-0.97,1000
17:13:54.647,2.15,5.98,107.65,-0.24,-0.3,-0.55,-0.1,0.02,-0.97,1000
17:13:54.671,2.12,5.98,107.64,-0.24,-0.18,-0.55,-0.1,0.03,-0.97,1000
17:13:54.671,2.13,5.98,107.64,-0.18,-0.24,-0.43,-0.1,0.02,-0.97,1000
17:13:54.681,2.12,5.98,107.63,-0.24,-0.37,-0.55,-0.1,0.03,-0.97,1000
17:13:54.692,2.11,5.98,107.63,-0.24,-0.37,-0.55,-0.1,0.03,-0.97,1000
17:13:54.705,2.08,5.97,107.62,-0.37,-0.3,-0.61,-0.1,0.02,-0.97,1000
17:13:54.713,2.07,5.96,107.61,-0.37,-0.24,-0.37,-0.1,0.03,-0.97,1000
17:13:54.729,2.06,5.96,107.61,-0.3,-0.24,-0.55,-0.1,0.03,-0.97,1000
17:13:54.735,2.06,5.96,107.6,-0.3,-0.12,-0.43,-0.1,0.02,-0.97,1000
17:13:54.746,2.04,5.95,107.6,-0.18,-0.3,-0.49,-0.1,0.03,-0.97,1000
17:13:54.757,2.03,5.95,107.59,-0.12,-0.06,-0.55,-0.1,0.03,-0.97,1000
17:13:54.768,2.01,5.95,107.59,-0.18,-0.3,-0.61,-0.1,0.03,-0.97,1000
17:13:54.781,2.0,5.95,107.58,-0.37,-0.3,-0.61,-0.1,0.02,-0.97,1000
17:13:54.794,2.01,5.96,107.57,-0.18,-0.24,-0.61,-0.1,0.02,-0.97,1000
17:13:54.803,2.0,5.96,107.57,-0.37,-0.18,-0.61,-0.1,0.03,-0.97,1000
17:13:54.812,1.99,5.96,107.56,-0.24,-0.24,-0.61,-0.1,0.03,-0.97,1000
17:13:54.823,1.97,5.95,107.56,-0.24,-0.37,-0.43,-0.1,0.02,-0.97,1000
17:13:54.834,1.95,5.95,107.55,-0.24,-0.24,-0.43,-0.1,0.02,-0.97,1000
17:13:54.845,1.93,5.95,107.54,-0.3,-0.06,-0.55,-0.1,0.03,-0.97,1000
17:13:54.856,1.93,5.96,107.54,-0.24,-0.3,-0.24,-0.1,0.03,-0.97,1000
17:13:54.867,1.92,5.95,107.53,-0.18,-0.3,-0.37,-0.1,0.02,-0.97,1000
17:13:54.878,1.9,5.95,107.53,-0.18,-0.3,-0.43,-0.1,0.03,-0.97,1000
17:13:54.889,1.9,5.94,107.52,-0.43,-0.3,-0.43,-0.1,0.02,-0.97,1000
17:13:54.903,1.87,5.95,107.52,-0.3,-0.3,-0.61,-0.1,0.03,-0.97,1000
17:13:54.913,1.88,5.96,107.51,-0.37,-0.18,-0.49,-0.1,0.03,-0.97,1000
17:13:54.922,1.87,5.97,107.51,-0.24,-0.18,-0.61,-0.1,0.02,-0.97,1000
17:13:54.941,1.86,5.97,107.5,-0.3,-0.24,-0.49,-0.1,0.03,-0.97,1000
17:13:54.947,1.87,5.96,107.49,-0.24,-0.3,-0.55,-0.1,0.03,-0.97,1000
17:13:54.955,1.86,5.96,107.49,-0.18,-0.12,-0.49,-0.1,0.02,-0.97,1000
17:13:54.966,1.85,5.95,107.48,-0.24,-0.18,-0.61,-0.1,0.02,-0.97,1000
17:13:54.977,1.84,5.95,107.48,-0.24,-0.3,-0.49,-0.1,0.03,-0.97,1000
17:13:54.988,1.83,5.95,107.47,-0.3,-0.18,-0.49,-0.1,0.02,-0.97,1000
17:13:54.999,1.82,5.95,107.47,-0.18,-0.12,-0.61,-0.1,0.02,-0.97,1000
17:13:55.010,1.82,5.96,107.46,-0.24,-0.3,-0.49,-0.1,0.03,-0.97,1000
17:13:55.025,1.81,5.96,107.45,-0.37,-0.37,-0.43,-0.1,0.02,-0.97,1000
17:13:55.036,1.82,5.96,107.45,-0.3,-0.37,-0.49,-0.1,0.03,-0.97,1000
17:13:55.048,1.82,5.96,107.44,-0.18,-0.3,-0.37,-0.1,0.02,-0.97,1000
17:13:55.054,1.82,5.96,107.44,-0.18,-0.18,-0.37,-0.1,0.03,-0.97,1000
17:13:55.065,1.81,5.95,107.43,-0.3,-0.3,-0.43,-0.1,0.02,-0.97,1000
17:13:55.076,1.79,5.95,107.43,-0.18,-0.24,-0.43,-0.1,0.02,-0.97,1000
17:13:55.087,1.78,5.96,107.42,-0.3,-0.18,-0.49,-0.1,0.03,-0.97,1000
17:13:55.100,1.77,5.96,107.41,-0.3,-0.18,-0.61,-0.1,0.03,-0.97,1000
17:13:55.111,1.77,5.96,107.41,-0.43,-0.3,-0.55,-0.1,0.03,-0.97,1000
17:13:55.120,1.76,5.95,107.4,-0.49,-0.18,-0.61,-0.1,0.03,-0.97,1000
17:13:55.131,1.74,5.95,107.4,-0.24,-0.24,-0.61,-0.1,0.02,-0.97,1000
17:13:55.150,1.73,5.96,107.39,1.1,-0.43,-0.24,-0.09,0.03,-0.95,1000
17:13:55.153,1.76,5.94,107.38,0.55,-1.22,-0.98,-0.1,0.02,-0.99,1000
17:13:55.164,1.72,5.93,107.37,-0.79,-1.16,-0.55,-0.1,0.04,-0.96,1000
17:13:55.175,1.68,5.93,107.37,-0.06,-1.89,-0.61,-0.09,0.01,-0.96,1000
17:13:55.188,1.69,5.95,107.36,2.01,-0.85,-1.04,-0.1,0.02,-0.96,1000
17:13:55.197,1.74,5.97,107.35,4.15,-2.26,-1.4,-0.04,0.03,-0.96,1000
17:13:55.209,1.8,5.89,107.32,3.72,-2.87,-2.74,-0.12,0.03,-1.0,1000
17:13:55.219,1.84,5.83,107.28,2.07,-3.6,-3.96,-0.1,0.02,-0.96,1000
17:13:55.231,1.81,5.8,107.24,0.73,-1.46,-3.41,-0.15,-0.03,-0.92,1000
17:13:55.241,1.5,6.0,107.22,-5.43,-1.59,-4.45,0.3,0.14,-1.04,1000
17:13:55.252,1.62,5.44,107.18,2.32,-5.43,-3.11,-0.23,-0.04,-1.01,1000
17:13:55.263,1.75,5.46,107.13,-2.13,-4.27,-3.78,-0.16,-0.03,-0.94,1000
17:13:55.276,1.67,5.81,107.09,-0.12,1.46,-1.65,-0.14,0.0,-0.93,1000
17:13:55.285,1.61,5.92,107.07,3.41,-1.71,-2.5,-0.1,0.03,-0.95,1000
17:13:55.296,2.04,5.83,107.03,9.39,-5.91,-3.54,-0.09,0.06,-0.99,1000
17:13:55.310,2.25,5.75,106.99,1.83,0.12,-2.38,-0.11,0.0,-0.98,1000
17:13:55.318,2.11,5.89,106.99,1.16,2.32,0.24,-0.1,-0.01,-0.99,1000
17:13:55.330,1.81,6.1,106.99,-1.59,0.91,0.06,-0.11,0.02,-0.98,1000
17:13:55.343,1.65,6.16,106.99,-4.02,0.18,-0.55,-0.08,0.02,-0.98,1000
17:13:55.351,1.61,6.09,106.98,-5.91,0.67,0.06,-0.1,0.04,-0.97,1000
17:13:55.364,1.73,6.03,106.99,-3.84,0.85,1.28,-0.06,0.11,-0.96,1000
17:13:55.373,2.09,6.24,107.0,-6.95,-2.26,-0.79,0.08,-0.33,-1.0,1000
17:13:55.384,1.72,6.32,106.99,0.61,0.98,-0.06,-0.06,0.04,-1.07,1000
17:13:55.395,1.26,6.37,106.99,-8.41,-2.44,0.55,-0.15,0.02,-0.91,1000
17:13:55.407,0.93,6.37,107.0,-4.76,-1.95,1.59,-0.05,0.02,-0.97,1000
17:13:55.417,0.95,6.27,107.03,3.17,3.78,3.11,-0.13,0.15,-0.98,1000
17:13:55.428,1.1,6.63,107.06,4.76,5.73,1.46,-0.15,0.17,-1.16,1000
17:13:55.440,1.84,7.19,107.07,6.95,12.68,1.04,-0.23,0.11,-0.98,1000
17:13:55.454,2.8,7.68,107.08,9.51,11.28,0.67,-0.27,-0.01,-1.15,1000
17:13:55.461,3.26,9.04,107.11,13.72,22.68,6.89,-0.25,0.23,-1.25,1000
17:13:55.474,3.71,10.91,107.22,9.15,45.24,14.45,-0.45,0.16,-1.48,1000
17:13:55.483,4.23,12.32,107.41,6.34,62.5,20.67,-0.3,0.09,-1.14,1000
17:13:55.504,4.71,13.09,107.67,2.8,69.76,25.49,-0.1,0.18,-1.13,1000
17:13:55.506,5.18,13.05,108.0,-0.61,63.41,29.57,-0.16,0.06,-1.05,1000
17:13:55.516,5.33,12.53,108.31,-4.57,55.79,32.93,-0.1,0.06,-1.13,1000
17:13:55.527,5.21,11.55,108.69,-9.45,48.84,36.52,-0.03,0.07,-1.1,1000
17:13:55.538,4.93,10.02,109.11,-9.09,39.76,40.3,-0.02,0.05,-1.21,1000
17:13:55.557,4.69,8.21,109.57,-7.13,30.12,43.23,0.01,0.08,-1.18,1000
17:13:55.560,4.52,6.35,110.05,-4.7,22.26,45.49,0.04,0.08,-1.22,1000
17:13:55.589,4.37,4.78,110.56,0.3,18.23,47.07,0.04,0.07,-1.2,1000
17:13:55.589,4.23,3.44,111.09,7.2,17.74,47.87,0.03,0.06,-1.29,1000
17:13:55.606,4.22,2.5,111.61,18.84,20.98,47.74,0.04,0.09,-1.33,1000
17:13:55.606,4.34,1.61,112.13,32.8,24.82,47.13,0.05,0.08,-1.32,1000
17:13:55.628,4.54,0.93,112.64,46.28,26.71,45.55,0.07,0.04,-1.15,1000
17:13:55.628,4.58,0.08,113.13,56.1,26.95,42.8,0.1,0.01,-1.09,1000
17:13:55.638,4.49,-0.73,113.59,60.85,25.55,39.57,0.11,-0.02,-1.07,1000
17:13:55.675,4.08,-1.6,114.0,64.51,25.85,35.37,0.09,-0.03,-1.12,1000
17:13:55.677,3.7,-2.28,114.37,67.2,27.32,31.04,0.1,0.01,-1.13,1000
17:13:55.677,3.6,-2.81,114.69,70.0,30.91,27.44,0.1,0.05,-1.09,1000
17:13:55.682,3.87,-3.12,114.96,72.56,34.82,25.49,0.09,0.07,-1.09,1000
17:13:55.707,4.41,-3.39,115.26,75.49,40.0,24.82,0.1,0.07,-1.09,1000
17:13:55.707,4.89,-3.58,115.53,77.26,44.15,24.82,0.11,0.05,-1.14,1000
17:13:55.715,5.17,-3.76,115.81,75.43,46.34,24.94,0.12,0.02,-1.14,1000
17:13:55.725,5.02,-4.05,116.08,70.18,47.74,24.57,0.12,-0.01,-1.14,1000
17:13:55.776,4.47,-4.37,116.35,62.38,47.8,24.02,0.13,-0.04,-1.09,1000
17:13:55.777,3.76,-4.62,116.6,52.74,48.41,22.99,0.13,-0.07,-1.09,1000
17:13:55.779,2.68,-4.84,116.85,44.7,50.24,22.07,0.11,-0.07,-1.06,1000
17:13:55.779,1.63,-4.96,117.09,39.45,52.44,21.83,0.12,-0.06,-1.03,1000
17:13:55.781,0.88,-5.05,117.33,36.83,55.79,21.95,0.12,-0.05,-0.99,1000
17:13:55.801,0.25,-5.2,117.58,35.06,58.17,22.32,0.14,-0.07,-0.96,1000
17:13:55.803,-0.62,-5.49,117.82,32.87,61.1,22.44,0.13,-0.11,-0.95,1000
17:13:55.813,-1.71,-5.67,118.07,29.45,63.41,21.95,0.12,-0.17,-0.96,1000
17:13:55.844,-3.12,-5.84,118.31,27.01,65.3,21.16,0.15,-0.18,-0.97,1000
17:13:55.845,-4.69,-6.16,118.53,25.67,65.79,19.88,0.18,-0.19,-0.98,1000
17:13:55.848,-5.96,-6.58,118.74,25.0,63.29,18.29,0.19,-0.21,-0.98,1000
17:13:55.859,-7.02,-6.97,118.94,24.82,59.88,17.26,0.18,-0.21,-1.0,1000
17:13:55.868,-8.12,-7.39,119.12,23.66,54.09,16.28,0.19,-0.23,-0.99,1000
17:13:55.880,-9.2,-7.94,119.3,24.33,48.6,15.0,0.21,-0.23,-1.0,1000
17:13:55.890,-9.93,-8.53,119.46,25.3,42.74,14.45,0.21,-0.2,-0.95,1000
17:13:55.901,-10.45,-9.17,119.62,25.79,39.21,14.15,0.19,-0.19,-0.94,1000
17:13:55.913,-10.82,-9.67,119.75,25.49,37.68,13.05,0.18,-0.2,-0.92,1000
17:13:55.923,-11.2,-10.03,119.91,23.78,36.71,12.93,0.18,-0.21,-0.93,1000
17:13:55.935,-11.61,-10.32,120.05,20.37,35.06,12.68,0.2,-0.23,-0.95,1000
17:13:55.975,-12.12,-10.68,120.19,15.12,32.13,13.05,0.23,-0.25,-0.97,1000
17:13:55.976,-12.71,-11.21,120.34,10.91,28.11,13.48,0.24,-0.27,-0.97,1000
17:13:55.976,-13.43,-11.91,120.49,10.55,25.24,14.27,0.27,-0.3,-0.95,1000
17:13:55.978,-14.24,-12.63,120.65,9.82,21.65,14.82,0.27,-0.31,-0.99,1000
17:13:55.999,-15.05,-13.33,120.81,11.1,18.9,14.76,0.28,-0.33,-0.95,1000
17:13:56.001,-15.96,-14.13,120.99,13.41,16.22,14.09,0.28,-0.34,-0.97,1000
17:13:56.013,-16.65,-14.66,121.13,16.16,16.22,13.17,0.27,-0.34,-0.94,1000
17:13:56.036,-17.29,-15.04,121.27,19.21,16.77,12.38,0.26,-0.35,-0.96,1000
17:13:56.049,-17.9,-15.26,121.4,21.59,18.6,11.22,0.27,-0.35,-0.94,1000
17:13:56.080,-18.35,-15.47,121.52,24.33,20.85,10.73,0.26,-0.34,-0.95,1000
17:13:56.080,-18.64,-15.62,121.64,24.76,22.62,10.98,0.27,-0.34,-0.95,1000
17:13:56.080,-18.86,-15.66,121.76,24.02,25.3,11.46,0.27,-0.32,-0.97,1000
17:13:56.085,-18.93,-15.61,121.89,22.32,27.87,12.62,0.26,-0.33,-0.94,1000
17:13:56.089,-19.06,-15.61,122.03,20.73,30.37,13.11,0.26,-0.33,-0.92,1000
17:13:56.114,-19.25,-15.53,122.18,19.51,31.16,13.54,0.26,-0.35,-0.9,1000
17:13:56.117,-19.64,-15.49,122.34,20.37,30.73,12.74,0.26,-0.35,-0.92,1000
17:13:56.123,-19.91,-15.51,122.46,23.05,29.33,11.59,0.27,-0.33,-0.91,1000
17:13:56.132,-20.02,-15.6,122.58,26.95,27.26,10.43,0.28,-0.33,-0.93,1000
17:13:56.156,-19.98,-15.81,122.69,28.66,24.63,8.96,0.3,-0.34,-0.93,1000
17:13:56.185,-19.95,-16.13,122.79,27.74,22.44,7.62,0.29,-0.35,-0.94,1000
17:13:56.185,-20.07,-16.38,122.86,25.55,20.61,5.85,0.28,-0.37,-0.92,1000
17:13:56.185,-20.35,-16.5,122.91,23.6,19.09,3.6,0.27,-0.37,-0.92,1000
17:13:56.188,-20.63,-16.56,122.94,22.62,17.38,1.59,0.28,-0.36,-0.92,1000
17:13:56.199,-20.84,-16.63,122.95,21.59,15.98,-0.55,0.3,-0.38,-0.94,1000
17:13:56.215,-21.09,-16.78,122.93,19.63,13.29,-2.26,0.31,-0.39,-0.96,1000
17:13:56.220,-21.3,-17.07,122.9,18.35,9.33,-4.39,0.33,-0.39,-0.97,1000
17:13:56.232,-21.4,-17.51,122.84,17.87,4.88,-5.73,0.37,-0.38,-0.98,1000
17:13:56.243,-21.41,-18.08,122.77,18.41,0.61,-6.77,0.37,-0.38,-0.99,1000
17:13:56.275,-21.33,-18.67,122.69,19.02,-2.2,-7.56,0.36,-0.38,-0.98,1000
17:13:56.284,-21.22,-19.15,122.61,18.78,-2.68,-7.8,0.35,-0.37,-0.97,1000
17:13:56.287,-21.14,-19.47,122.52,18.29,-1.77,-7.93,0.34,-0.38,-0.97,1000
17:13:56.302,-21.21,-19.69,122.44,16.77,-0.73,-8.05,0.34,-0.4,-0.95,1000
17:13:56.302,-21.4,-19.84,122.34,15.61,0.85,-8.96,0.34,-0.41,-0.95,1000
17:13:56.309,-21.68,-19.93,122.25,15.37,1.4,-10.12,0.35,-0.43,-0.96,1000
17:13:56.333,-22.13,-20.0,122.1,17.2,1.16,-13.11,0.36,-0.43,-0.97,1000
17:13:56.335,-22.39,-20.12,121.96,18.9,-0.24,-16.1,0.37,-0.43,-1.0,1000
17:13:56.342,-22.55,-20.26,121.76,21.28,-0.98,-19.15,0.37,-0.44,-0.99,1000
17:13:56.355,-22.48,-20.42,121.54,23.96,-1.04,-21.1,0.39,-0.39,-1.0,1000
17:13:56.368,-22.17,-20.64,121.3,26.1,-1.04,-22.62,0.38,-0.39,-1.0,1000
17:13:56.380,-21.84,-20.8,121.05,27.44,0.85,-23.6,0.39,-0.4,-0.99,1000
17:13:56.392,-21.69,-20.91,120.79,26.04,3.11,-23.84,0.37,-0.4,-0.96,1000
17:13:56.410,-21.79,-20.93,120.52,22.38,5.55,-23.72,0.39,-0.42,-0.91,1000
17:13:56.410,-22.04,-21.07,120.29,18.41,8.6,-23.11,0.36,-0.4,-0.9,1000
17:13:56.419,-22.27,-21.13,120.02,16.46,12.62,-22.2,0.33,-0.4,-0.9,1000
17:13:56.431,-22.47,-21.05,119.77,15.98,16.04,-22.01,0.35,-0.4,-0.85,1000
17:13:56.441,-22.68,-21.07,119.53,16.4,17.93,-21.83,0.36,-0.38,-0.85,1000
17:13:56.451,-22.75,-21.24,119.3,16.65,18.78,-20.73,0.36,-0.37,-0.82,1000
17:13:56.463,-22.74,-21.53,119.08,17.32,20.06,-19.15,0.36,-0.36,-0.81,1000
17:13:56.484,-22.73,-21.84,118.88,17.56,22.32,-17.44,0.36,-0.35,-0.77,1000
17:13:56.485,-22.83,-22.18,118.7,17.07,24.7,-15.12,0.36,-0.35,-0.77,1000
17:13:56.498,-22.98,-22.45,118.55,15.98,26.71,-13.66,0.37,-0.36,-0.76,1000
17:13:56.507,-23.3,-22.72,118.39,13.17,28.96,-12.5,0.37,-0.39,-0.76,1000
17:13:56.522,-23.77,-22.9,118.26,10.0,30.12,-12.8,0.37,-0.41,-0.75,1000
17:13:56.529,-24.31,-23.01,118.12,7.07,30.73,-13.6,0.36,-0.42,-0.76,1000
17:13:56.553,-25.03,-23.06,117.96,4.88,30.91,-14.39,0.36,-0.41,-0.75,1000
17:13:56.553,-25.55,-23.08,117.79,4.57,29.94,-15.79,0.36,-0.42,-0.77,1000
17:13:56.588,-25.93,-23.12,117.62,5.61,29.02,-16.71,0.38,-0.41,-0.76,1000
17:13:56.592,-26.25,-23.29,117.43,8.66,30.06,-16.4,0.38,-0.43,-0.71,1000
17:13:56.596,-26.61,-23.74,117.25,8.23,28.48,-16.34,0.41,-0.45,-0.73,1000
17:13:56.596,-26.95,-24.16,117.09,7.74,28.6,-15.79,0.41,-0.43,-0.68,1000
17:13:56.606,-27.39,-24.64,116.9,5.85,28.17,-16.22,0.38,-0.42,-0.69,1000
17:13:56.616,-27.73,-25.03,116.72,3.66,29.76,-16.16,0.38,-0.41,-0.65,1000
17:13:56.633,-27.99,-25.36,116.55,2.07,31.22,-15.37,0.38,-0.4,-0.67,1000
17:13:56.667,-28.22,-25.61,116.4,0.24,31.77,-15.0,0.39,-0.41,-0.64,1000
17:13:56.667,-28.54,-26.07,116.22,-0.49,31.4,-14.82,0.41,-0.42,-0.65,1000
17:13:56.668,-28.9,-26.47,116.06,-0.85,30.61,-14.21,0.41,-0.43,-0.63,1000
17:13:56.710,-29.3,-26.91,115.89,-0.3,29.27,-14.09,0.42,-0.42,-0.64,1000
17:13:56.710,-29.5,-27.44,115.75,0.79,27.68,-13.72,0.43,-0.41,-0.6,1000
17:13:56.718,-29.68,-28.18,115.6,2.99,27.2,-13.05,0.43,-0.41,-0.58,1000
17:13:56.719,-29.88,-28.94,115.46,3.11,25.24,-12.56,0.45,-0.42,-0.58,1000
17:13:56.732,-30.15,-29.73,115.32,2.44,24.63,-12.56,0.45,-0.44,-0.56,1000
17:13:56.732,-30.53,-30.47,115.19,1.65,25.12,-12.56,0.45,-0.45,-0.55,1000
17:13:56.739,-31.02,-31.0,115.05,0.61,25.06,-13.11,0.45,-0.45,-0.55,1000
17:13:56.749,-31.53,-31.52,114.9,-0.24,24.02,-13.84,0.46,-0.45,-0.55,1000
17:13:56.793,-31.97,-32.02,114.74,-0.43,22.8,-15.3,0.46,-0.44,-0.55,1000
17:13:56.802,-32.25,-32.57,114.56,-1.4,20.12,-17.07,0.48,-0.43,-0.55,1000
17:13:56.802,-32.43,-33.19,114.36,-2.13,17.93,-18.9,0.49,-0.44,-0.53,1000
17:13:56.803,-32.65,-33.81,114.13,-3.72,15.37,-21.04,0.49,-0.45,-0.54,1000
17:13:56.804,-32.77,-34.31,113.91,-5.0,13.6,-22.8,0.49,-0.44,-0.53,1000
17:13:56.827,-32.92,-34.84,113.65,-7.01,12.32,-24.63,0.5,-0.44,-0.54,1000
17:13:56.827,-32.94,-35.32,113.37,-8.48,10.67,-26.46,0.5,-0.44,-0.55,1000
17:13:56.844,-32.86,-35.78,113.07,-9.76,8.9,-28.05,0.52,-0.42,-0.55,1000
17:13:56.869,-32.6,-36.32,112.78,-10.73,7.01,-29.21,0.53,-0.42,-0.54,1000
17:13:56.869,-32.25,-37.11,112.43,-9.94,4.33,-30.0,0.54,-0.39,-0.53,1000
17:13:56.893,-31.67,-37.95,112.1,-8.35,2.5,-29.94,0.54,-0.38,-0.52,1000
17:13:56.893,-31.01,-38.86,111.77,-6.16,1.28,-29.82,0.54,-0.36,-0.51,1000
17:13:56.893,-30.27,-39.73,111.47,-4.33,0.24,-29.02,0.55,-0.35,-0.49,1000
17:13:56.904,-29.53,-40.69,111.13,-2.32,-0.73,-28.05,0.55,-0.35,-0.51,1000
17:13:56.914,-28.85,-41.33,110.82,-1.1,-1.22,-27.26,0.54,-0.35,-0.53,1000
17:13:56.926,-28.28,-41.62,110.53,-0.43,-2.2,-26.95,0.54,-0.36,-0.56,1000
17:13:56.937,-27.65,-41.7,110.2,-0.49,-4.57,-26.89,0.56,-0.35,-0.58,1000
17:13:56.955,-27.01,-41.83,109.93,-2.56,-9.51,-27.62,0.58,-0.28,-0.58,1000
17:13:56.960,-26.2,-42.09,109.65,-1.71,-6.52,-27.74,0.58,-0.28,-0.61,1000
17:13:56.969,-24.79,-42.64,109.32,-9.51,-1.83,-28.6,0.64,-0.21,-0.55,1000
17:13:56.989,-23.07,-43.64,108.99,-16.83,5.55,-29.82,0.64,-0.19,-0.55,1000
17:13:56.994,-20.7,-44.94,108.63,-23.9,14.88,-30.61,0.66,-0.13,-0.56,1000
17:13:57.004,-19.26,-45.81,108.33,-29.21,23.72,-30.61,0.66,-0.14,-0.56,1000
17:13:57.013,-17.77,-46.51,108.02,-32.5,30.79,-30.49,0.65,-0.17,-0.59,1000
17:13:57.023,-16.45,-46.82,107.65,-34.21,35.3,-30.85,0.67,-0.18,-0.63,1000
17:13:57.050,-15.81,-46.58,107.31,-31.83,36.1,-31.16,0.64,-0.24,-0.66,1000
17:13:57.052,-15.6,-46.11,106.97,-27.2,33.6,-31.46,0.62,-0.23,-0.66,1000
17:13:57.056,-15.62,-45.52,106.65,-23.96,33.72,-31.04,0.62,-0.24,-0.63,1000
17:13:57.068,-15.8,-44.89,106.29,-18.72,34.09,-29.82,0.6,-0.27,-0.62,1000
17:13:57.078,-15.95,-44.58,105.97,-14.7,35.43,-27.74,0.64,-0.23,-0.61,1000
17:13:57.108,-15.94,-44.37,105.68,-10.67,36.4,-25.06,0.62,-0.24,-0.6,1000
17:13:57.109,-15.87,-44.34,105.42,-6.95,36.22,-21.28,0.63,-0.22,-0.58,1000
17:13:57.111,-15.73,-44.45,105.21,-4.15,34.45,-16.22,0.63,-0.22,-0.58,1000
17:13:57.126,-15.58,-44.61,105.06,1.46,29.7,-10.67,0.61,-0.22,-0.58,1000
17:13:57.135,-15.33,-44.78,104.97,4.27,25.98,-5.06,0.61,-0.2,-0.56,1000
17:13:57.145,-14.98,-45.05,104.94,5.67,22.32,0.73,0.59,-0.19,-0.58,1000
17:13:57.156,-14.41,-45.27,104.97,4.63,20.98,6.34,0.56,-0.23,-0.56,1000
17:13:57.167,-13.98,-45.43,105.07,2.26,16.59,11.59,0.61,-0.18,-0.58,1000
17:13:57.199,-13.65,-45.7,105.22,-2.99,14.02,16.46,0.6,-0.19,-0.55,1000
17:13:57.218,-13.45,-46.04,105.42,-7.68,10.12,20.61,0.59,-0.2,-0.59,1000
17:13:57.218,-13.36,-46.24,105.67,-13.29,7.68,24.15,0.61,-0.16,-0.56,1000
17:13:57.218,-13.28,-46.4,105.95,-18.35,7.13,27.2,0.6,-0.17,-0.58,1000
17:13:57.235,-13.19,-46.61,106.23,-21.89,5.49,29.7,0.63,-0.18,-0.55,1000
17:13:57.235,-13.13,-47.06,106.6,-24.63,5.91,31.28,0.64,-0.17,-0.54,1000
17:13:57.244,-13.06,-47.56,106.91,-25.3,6.28,32.2,0.64,-0.18,-0.54,1000
17:13:57.257,-12.9,-48.17,107.3,-25.37,7.01,32.56,0.65,-0.17,-0.54,1000
17:13:57.276,-12.76,-48.66,107.66,-24.7,7.56,32.74,0.65,-0.18,-0.56,1000
17:13:57.276,-12.58,-48.94,108.02,-23.9,7.68,32.5,0.65,-0.18,-0.57,1000
17:13:57.312,-12.5,-48.96,108.38,-23.48,8.78,31.89,0.65,-0.19,-0.59,1000
17:13:57.312,-12.51,-48.83,108.73,-23.72,10.37,31.4,0.66,-0.19,-0.6,1000
17:13:57.312,-12.57,-48.65,109.07,-23.84,13.35,30.49,0.65,-0.2,-0.61,1000
17:13:57.320,-12.65,-48.22,109.4,-23.05,15.61,29.82,0.66,-0.21,-0.62,1000
17:13:57.332,-12.77,-47.78,109.73,-21.28,17.68,29.51,0.68,-0.21,-0.64,1000
17:13:57.344,-12.86,-47.42,110.05,-19.09,19.02,29.88,0.68,-0.22,-0.67,1000
17:13:57.353,-12.93,-46.97,110.39,-18.23,20.98,30.91,0.69,-0.23,-0.69,1000
17:13:57.367,-13.06,-46.38,110.73,-18.84,23.9,32.2,0.68,-0.25,-0.7,1000
17:13:57.375,-13.29,-45.84,111.09,-19.94,26.77,33.11,0.68,-0.26,-0.72,1000
17:13:57.404,-13.66,-45.08,111.46,-20.37,29.51,33.78,0.69,-0.28,-0.73,1000
17:13:57.405,-14.11,-44.39,111.83,-19.15,30.91,33.66,0.7,-0.29,-0.73,1000
17:13:57.410,-14.49,-43.85,112.17,-17.13,31.34,33.78,0.7,-0.29,-0.73,1000
17:13:57.432,-14.8,-43.55,112.57,-12.99,32.56,34.02,0.71,-0.31,-0.73,1000
17:13:57.432,-15.15,-43.24,112.95,-8.35,32.44,35.0,0.74,-0.3,-0.73,1000
17:13:57.441,-15.36,-43.03,113.35,-3.54,34.51,37.07,0.72,-0.3,-0.73,1000
17:13:57.454,-15.43,-42.92,113.73,0.85,36.65,39.63,0.74,-0.3,-0.71,1000
17:13:57.463,-15.44,-42.97,114.18,5.37,38.96,43.05,0.73,-0.28,-0.73,1000
17:13:57.474,-15.29,-42.96,114.72,9.57,39.09,47.26,0.74,-0.29,-0.73,1000
17:13:57.485,-15.13,-42.96,115.26,12.99,38.54,51.4,0.75,-0.3,-0.73,1000
17:13:57.505,-15.03,-43.04,115.85,16.1,37.87,56.71,0.76,-0.3,-0.71,1000
17:13:57.518,-15.05,-43.25,116.5,18.96,37.74,61.95,0.77,-0.31,-0.71,1000
17:13:57.519,-15.09,-43.4,117.21,22.87,39.33,67.8,0.76,-0.33,-0.71,1000
17:13:57.530,-15.36,-43.52,117.98,26.77,41.34,73.54,0.75,-0.36,-0.7,1000
17:13:57.542,-15.65,-43.52,118.82,32.01,43.78,78.66,0.76,-0.38,-0.69,1000
17:13:57.551,-16.16,-43.52,119.71,38.6,46.34,83.54,0.75,-0.39,-0.67,1000
17:13:57.565,-16.66,-43.47,120.64,45.73,48.29,86.89,0.74,-0.41,-0.66,1000
17:13:57.575,-17.13,-43.39,121.52,51.59,49.76,89.51,0.74,-0.43,-0.66,1000
17:13:57.616,-17.87,-43.28,122.61,59.21,50.67,92.07,0.75,-0.44,-0.64,1000
17:13:57.626,-18.59,-43.22,123.64,65.61,51.52,94.33,0.74,-0.45,-0.63,1000
17:13:57.626,-19.34,-43.12,124.68,68.48,50.73,95.37,0.7,-0.43,-0.66,1000
17:13:57.638,-19.81,-42.86,125.74,71.59,51.34,96.71,0.71,-0.47,-0.57,1000
17:13:57.639,-20.65,-42.56,126.8,73.72,53.66,97.74,0.67,-0.52,-0.58,1000
17:13:57.655,-22.16,-42.07,127.88,77.26,56.52,97.01,0.65,-0.56,-0.54,1000
17:13:57.655,-23.9,-41.44,128.95,82.01,58.29,97.5,0.66,-0.6,-0.53,1000
17:13:57.674,-25.27,-40.93,130.02,89.63,58.66,98.17,0.67,-0.62,-0.49,1000
17:13:57.677,-26.77,-40.57,131.1,97.99,55.67,97.99,0.65,-0.6,-0.5,1000
17:13:57.686,-28.06,-40.28,132.18,107.07,52.13,98.23,0.64,-0.62,-0.48,1000
17:13:57.712,-29.2,-39.99,133.26,116.46,50.3,98.78,0.64,-0.63,-0.48,1000
17:13:57.712,-30.15,-39.7,134.35,122.32,48.11,98.35,0.62,-0.63,-0.48,1000
17:13:57.718,-30.98,-39.33,135.33,124.02,46.89,97.74,0.59,-0.64,-0.46,1000
17:13:57.727,-31.85,-38.8,136.5,125.18,47.32,97.32,0.58,-0.68,-0.43,1000
17:13:57.738,-33.55,-38.08,137.57,126.89,49.15,97.13,0.56,-0.7,-0.4,1000
17:13:57.749,-35.17,-37.22,138.63,126.4,50.12,95.43,0.52,-0.73,-0.4,1000
17:13:57.762,-36.45,-36.3,139.67,124.94,51.46,93.29,0.5,-0.76,-0.37,1000
17:13:57.771,-38.05,-35.3,140.59,124.15,52.62,90.43,0.49,-0.78,-0.35,1000
17:13:57.782,-40.67,-33.93,141.66,124.09,54.39,86.65,0.49,-0.79,-0.29,1000
17:13:57.793,-42.91,-32.77,142.58,124.27,55.49,80.55,0.43,-0.77,-0.25,1000
17:13:57.808,-45.63,-31.39,143.44,124.21,54.45,73.9,0.38,-0.78,-0.18,1000
17:13:57.822,-48.12,-30.06,144.21,122.01,55.85,65.85,0.34,-0.72,-0.24,1000
17:13:57.826,-50.08,-28.85,144.83,119.33,48.17,58.29,0.34,-0.93,-0.02,1000
17:13:57.838,-52.68,-27.44,145.5,120.91,45.49,51.71,0.39,-0.71,-0.2,1000
17:13:57.848,-54.51,-26.47,146.04,121.46,40.0,47.26,0.33,-0.79,-0.05,1000
17:13:57.859,-56.19,-25.77,146.55,126.04,35.91,44.21,0.29,-0.82,-0.09,1000
17:13:57.871,-58.03,-25.05,147.02,128.29,33.9,41.71,0.34,-0.78,-0.01,1000
17:13:57.883,-59.78,-24.27,147.47,128.72,33.29,40.24,0.31,-0.79,-0.05,1000
17:13:57.892,-61.42,-23.44,147.91,130.67,29.15,39.88,0.27,-0.82,0.02,1000
17:13:57.917,-63.12,-22.52,148.36,133.41,24.15,42.2,0.27,-0.79,0.01,1000
17:13:57.917,-64.4,-21.8,148.84,136.77,21.52,45.67,0.42,-0.71,0.03,1000
17:13:57.928,-64.92,-21.67,149.36,137.26,13.84,48.6,0.16,-0.83,0.05,1000
17:13:57.941,-65.51,-21.39,149.92,141.04,2.13,51.65,0.23,-0.8,0.03,1000
17:13:57.959,-65.89,-21.37,150.5,139.82,3.41,54.15,0.3,-0.78,0.12,1000
17:13:57.959,-66.05,-21.42,151.1,144.33,-2.07,56.4,0.22,-0.87,0.14,1000
17:13:57.969,-66.12,-21.37,151.73,147.68,-0.06,56.28,0.23,-0.77,0.29,1000
17:13:57.986,-65.9,-21.21,152.34,142.2,-6.77,53.84,0.27,-0.78,0.2,1000
17:13:57.994,-65.64,-21.02,152.92,138.35,-12.56,50.61,0.29,-0.75,0.26,1000
17:13:58.004,-65.31,-20.76,153.45,139.21,-8.48,46.77,0.38,-0.72,0.28,1000
17:13:58.019,-64.86,-20.66,153.95,135.12,-10.18,42.26,0.28,-0.78,0.31,1000
17:13:58.025,-64.32,-20.66,154.39,128.9,-17.8,37.01,0.29,-0.8,0.27,1000
17:13:58.035,-63.73,-20.75,154.77,125.43,-18.48,30.55,0.39,-0.81,0.32,1000
17:13:58.046,-62.78,-20.97,155.07,123.72,-17.26,23.84,0.42,-0.78,0.45,1000
17:13:58.057,-61.42,-21.22,155.29,124.88,-18.05,14.33,0.3,-0.78,0.42,1000
17:13:58.069,-60.14,-21.29,155.39,124.88,-17.26,4.09,0.34,-0.8,0.43,1000
17:13:58.082,-59.08,-21.31,155.4,122.99,-11.89,-4.15,0.37,-0.81,0.42,1000
17:13:58.092,-58.11,-21.41,155.32,119.45,-4.51,-10.79,0.36,-0.78,0.45,1000
17:13:58.101,-56.98,-21.54,155.18,114.02,1.28,-15.0,0.35,-0.74,0.46,1000
17:13:58.112,-55.7,-21.63,155.0,107.74,6.65,-17.8,0.35,-0.71,0.52,1000
17:13:58.123,-54.3,-21.55,154.79,101.52,11.4,-19.76,0.33,-0.7,0.52,1000
17:13:58.146,-53.08,-21.32,154.57,94.94,13.17,-20.85,0.33,-0.7,0.53,1000
17:13:58.147,-52.12,-21.06,154.31,88.54,14.15,-21.65,0.32,-0.69,0.55,1000
17:13:58.156,-51.31,-20.83,154.09,83.35,14.15,-22.32,0.33,-0.69,0.58,1000
17:13:58.171,-50.51,-20.58,153.85,79.63,14.33,-22.8,0.33,-0.68,0.61,1000
17:13:58.178,-49.47,-20.3,153.59,76.83,14.15,-23.11,0.32,-0.64,0.63,1000
17:13:58.189,-48.25,-20.06,153.34,73.96,12.26,-22.87,0.34,-0.66,0.65,1000
17:13:58.204,-47.15,-19.92,153.1,71.04,9.33,-21.65,0.32,-0.64,0.65,1000
17:13:58.211,-46.23,-19.83,152.87,66.52,6.52,-19.7,0.33,-0.62,0.66,1000
17:13:58.244,-45.14,-19.92,152.67,60.98,3.29,-16.77,0.36,-0.63,0.66,1000
17:13:58.244,-44.44,-20.19,152.5,57.5,1.22,-13.29,0.39,-0.63,0.67,1000
17:13:58.245,-43.72,-20.64,152.37,55.06,0.12,-9.94,0.41,-0.62,0.67,1000
17:13:58.255,-42.86,-21.3,152.27,52.74,-0.85,-7.2,0.43,-0.62,0.71,1000
17:13:58.267,-41.97,-21.92,152.21,51.28,-1.04,-4.51,0.42,-0.62,0.71,1000
17:13:58.298,-41.08,-22.47,152.18,48.96,0.55,-1.4,0.42,-0.63,0.73,1000
17:13:58.335,-40.42,-22.85,152.17,47.13,1.71,0.43,0.44,-0.63,0.73,1000
17:13:58.406,-39.82,-23.19,152.18,45.49,2.26,1.4,0.44,-0.62,0.74,1000
17:13:58.406,-39.34,-23.49,152.2,42.8,2.38,2.13,0.44,-0.61,0.73,1000
17:13:58.406,-38.87,-23.77,152.22,38.72,2.56,2.68,0.44,-0.62,0.73,1000
17:13:58.406,-38.51,-24.01,152.25,33.78,3.11,2.99,0.43,-0.61,0.74,1000
17:13:58.406,-38.27,-24.17,152.29,28.84,4.09,2.5,0.44,-0.62,0.73,1000
17:13:58.406,-38.19,-24.3,152.3,24.09,4.76,0.61,0.44,-0.62,0.73,1000
17:13:58.439,-38.12,-24.45,152.3,20.24,5.49,-1.59,0.45,-0.62,0.73,1000
17:13:58.439,-38.13,-24.6,152.28,16.52,6.95,-2.99,0.45,-0.62,0.73,1000
17:13:58.439,-38.17,-24.73,152.24,12.56,8.9,-3.96,0.45,-0.63,0.73,1000
17:13:58.441,-38.21,-24.8,152.19,9.76,10.0,-4.57,0.45,-0.63,0.73,1000
17:13:58.441,-38.37,-24.79,152.14,8.11,10.61,-4.57,0.44,-0.63,0.73,1000
17:13:58.441,-38.47,-24.75,152.09,6.46,10.18,-4.57,0.44,-0.63,0.73,1000
17:13:58.464,-38.56,-24.68,152.04,4.57,9.82,-4.02,0.43,-0.63,0.73,1000
17:13:58.470,-38.73,-24.6,151.99,3.05,9.63,-4.15,0.42,-0.63,0.73,1000
17:13:58.473,-38.83,-24.4,151.95,2.13,9.09,-4.63,0.41,-0.63,0.73,1000
17:13:58.473,-38.94,-24.16,151.9,2.13,8.05,-5.0,0.41,-0.63,0.72,1000
17:13:58.511,-39.16,-23.98,151.84,2.99,6.77,-5.49,0.4,-0.63,0.72,1000
17:13:58.511,-39.26,-23.84,151.79,3.48,5.49,-5.18,0.41,-0.62,0.71,1000
17:13:58.511,-39.3,-23.77,151.73,3.41,3.84,-3.6,0.41,-0.62,0.71,1000
17:13:58.511,-39.28,-23.81,151.71,3.17,2.93,-0.67,0.42,-0.61,0.71,1000
17:13:58.540,-39.2,-23.94,151.72,2.68,2.93,2.93,0.43,-0.62,0.71,1000
17:13:58.540,-39.09,-24.1,151.77,2.07,3.54,6.71,0.43,-0.62,0.72,1000
17:13:58.554,-39.03,-24.22,151.86,0.91,3.6,10.3,0.43,-0.62,0.72,1000
17:13:58.598,-38.88,-24.31,151.99,-0.3,3.96,12.38,0.43,-0.62,0.72,1000
17:13:58.598,-38.82,-24.35,152.11,-2.07,4.15,13.05,0.42,-0.62,0.72,1000
17:13:58.599,-38.93,-24.34,152.27,-4.76,5.06,13.05,0.43,-0.64,0.71,1000
17:13:58.599,-39.11,-24.31,152.41,-6.77,6.95,12.5,0.42,-0.64,0.72,1000
17:13:58.599,-39.32,-24.2,152.55,-8.66,10.0,11.59,0.41,-0.64,0.72,1000
17:13:58.608,-39.57,-24.02,152.67,-10.0,12.68,10.43,0.4,-0.65,0.73,1000
17:13:58.623,-39.73,-23.65,152.78,-10.79,15.12,8.9,0.39,-0.66,0.73,1000
17:13:58.641,-40.02,-23.14,152.87,-10.79,16.89,7.13,0.36,-0.67,0.73,1000
17:13:58.641,-40.35,-22.51,152.94,-10.24,17.13,5.49,0.34,-0.67,0.73,1000
17:13:58.671,-40.69,-21.75,152.99,-9.21,15.91,4.27,0.32,-0.67,0.73,1000
17:13:58.671,-41.01,-20.85,153.03,-8.78,14.09,3.29,0.31,-0.67,0.73,1000
17:13:58.676,-41.28,-20.14,153.06,-9.21,10.98,2.74,0.3,-0.66,0.73,1000
17:13:58.685,-41.62,-19.48,153.09,-9.7,6.95,2.38,0.29,-0.67,0.72,1000
17:13:58.695,-41.87,-18.83,153.12,-9.7,3.9,2.13,0.28,-0.67,0.71,1000
17:13:58.706,-42.16,-18.26,153.14,-10.06,1.4,2.32,0.29,-0.67,0.71,1000
17:13:58.717,-42.42,-17.86,153.17,-10.24,-0.73,2.44,0.29,-0.67,0.71,1000
17:13:58.736,-42.68,-17.54,153.2,-10.06,-2.8,2.8,0.3,-0.67,0.7,1000
17:13:58.751,-42.88,-17.43,153.23,-9.94,-4.45,3.35,0.3,-0.67,0.7,1000
17:13:58.753,-43.09,-17.41,153.27,-9.51,-6.16,3.96,0.3,-0.67,0.69,1000
17:13:58.764,-43.21,-17.47,153.32,-8.78,-6.95,4.76,0.31,-0.67,0.69,1000
17:13:58.772,-43.3,-17.6,153.37,-7.87,-7.62,5.06,0.31,-0.67,0.68,1000
17:13:58.783,-43.44,-17.77,153.43,-7.2,-7.87,5.0,0.33,-0.68,0.68,1000
17:13:58.813,-43.5,-18.04,153.49,-6.16,-7.8,5.55,0.35,-0.68,0.69,1000
17:13:58.813,-43.56,-18.31,153.54,-5.0,-6.95,5.98,0.34,-0.68,0.69,1000
17:13:58.817,-43.55,-18.61,153.61,-4.39,-5.73,7.01,0.35,-0.68,0.69,1000
17:13:58.828,-43.56,-18.89,153.7,-3.96,-3.96,8.17,0.36,-0.69,0.69,1000
17:13:58.854,-43.46,-19.17,153.8,-4.02,-2.07,9.21,0.35,-0.68,0.68,1000
17:13:58.854,-43.38,-19.35,153.91,-5.3,-0.91,10.0,0.35,-0.68,0.68,1000
17:13:58.862,-43.43,-19.44,154.02,-6.77,0.18,10.24,0.34,-0.69,0.68,1000
17:13:58.871,-43.54,-19.44,154.13,-7.74,1.28,9.57,0.33,-0.69,0.68,1000
17:13:58.882,-43.7,-19.35,154.23,-8.9,2.13,8.6,0.32,-0.7,0.68,1000
17:13:58.896,-43.82,-19.14,154.32,-9.51,2.07,6.77,0.31,-0.69,0.69,1000
17:13:58.910,-43.99,-18.9,154.38,-9.21,1.71,5.37,0.3,-0.69,0.69,1000
17:13:58.921,-44.13,-18.55,154.44,-8.9,0.61,3.84,0.3,-0.7,0.69,1000
17:13:58.951,-44.27,-18.28,154.47,-8.66,-1.22,2.74,0.3,-0.69,0.69,1000
17:13:58.955,-44.28,-18.05,154.5,-8.35,-2.68,2.74,0.3,-0.68,0.69,1000
17:13:58.955,-44.32,-17.9,154.53,-8.84,-3.35,3.72,0.3,-0.68,0.68,1000
17:13:58.965,-44.3,-17.84,154.58,-9.94,-3.48,4.94,0.31,-0.68,0.67,1000
17:13:58.984,-44.28,-17.85,154.64,-11.04,-2.74,5.98,0.32,-0.68,0.68,1000
17:13:58.984,-44.13,-17.97,154.71,-11.83,-0.85,6.59,0.33,-0.68,0.68,1000
17:13:59.018,-44.09,-18.13,154.79,-12.87,1.77,7.2,0.34,-0.68,0.68,1000
17:13:59.019,-43.9,-18.38,154.86,-14.15,5.91,6.95,0.35,-0.67,0.68,1000
17:13:59.019,-43.74,-18.62,154.94,-16.04,10.67,7.38,0.36,-0.67,0.68,1000
17:13:59.028,-43.57,-18.8,155.02,-18.11,16.16,7.74,0.36,-0.66,0.69,1000
17:13:59.039,-43.36,-18.95,155.11,-22.44,23.23,8.35,0.35,-0.66,0.69,1000
17:13:59.054,-43.13,-19.03,155.2,-27.32,29.82,8.11,0.35,-0.65,0.69,1000
17:13:59.061,-43.0,-19.0,155.29,-32.62,37.2,7.38,0.36,-0.65,0.7,1000
17:13:59.070,-42.76,-18.98,155.37,-38.35,44.88,6.59,0.35,-0.64,0.7,1000
17:13:59.081,-42.47,-18.86,155.44,-45.24,53.72,5.91,0.35,-0.64,0.71,1000
17:13:59.093,-42.43,-18.6,155.5,-52.62,63.29,6.04,0.35,-0.63,0.71,1000
17:13:59.104,-42.46,-18.31,155.57,-62.01,74.76,6.16,0.33,-0.63,0.68,1000
17:13:59.114,-42.58,-17.95,155.64,-73.48,88.35,5.43,0.33,-0.64,0.68,1000
17:13:59.124,-42.95,-17.42,155.69,-86.22,101.71,3.54,0.31,-0.65,0.67,1000
17:13:59.157,-43.54,-16.67,155.71,-100.67,116.22,-0.73,0.28,-0.66,0.65,1000
17:13:59.161,-44.46,-15.79,155.68,-114.63,128.9,-5.37,0.29,-0.67,0.61,1000
17:13:59.180,-45.72,-14.83,155.59,-127.93,142.01,-11.4,0.21,-0.71,0.57,1000
17:13:59.180,-47.49,-13.46,155.42,-138.54,153.41,-20.61,0.17,-0.75,0.56,1000
17:13:59.182,-49.69,-11.61,155.14,-145.37,159.63,-32.93,0.14,-0.8,0.56,1000
17:13:59.208,-52.09,-9.51,154.65,-147.93,158.54,-49.7,0.1,-0.85,0.55,1000
17:13:59.211,-53.89,-7.95,154.17,-146.65,154.39,-59.94,0.07,-0.87,0.53,1000
17:13:59.215,-56.6,-5.64,153.31,-143.11,146.65,-72.32,0.04,-0.92,0.49,1000
17:13:59.253,-58.65,-4.05,152.56,-139.63,138.72,-78.78,0.05,-0.94,0.49,1000
17:13:59.254,-60.67,-2.63,151.67,-134.88,128.84,-82.87,0.06,-0.94,0.49,1000
17:13:59.254,-62.37,-1.61,150.75,-129.09,117.93,-84.09,0.07,-0.94,0.49,1000
17:13:59.258,-63.84,-1.16,149.75,-123.05,108.96,-82.26,0.1,-0.95,0.47,1000
17:13:59.268,-64.79,-1.06,149.03,-118.35,101.71,-78.17,0.12,-0.96,0.46,1000
17:13:59.280,-65.85,-1.45,148.13,-115.12,95.24,-72.68,0.2,-0.92,0.4,1000
17:13:59.289,-66.58,-2.24,147.34,-114.88,93.54,-70.37,0.24,-0.89,0.41,1000
17:13:59.300,-67.09,-3.11,146.57,-113.6,92.44,-69.21,0.22,-0.94,0.43,1000
17:13:59.311,-67.4,-4.25,145.82,-108.23,92.74,-67.93,0.24,-0.98,0.41,1000
17:13:59.338,-67.62,-5.42,145.07,-101.89,91.22,-68.48,0.26,-0.96,0.4,1000
17:13:59.341,-67.73,-6.7,144.3,-96.65,88.29,-69.82,0.25,-0.97,0.38,1000
17:13:59.350,-68.09,-7.32,143.6,-91.65,85.79,-70.67,0.26,-0.98,0.36,1000
17:13:59.355,-68.46,-8.18,142.75,-86.16,82.32,-70.79,0.27,-0.98,0.34,1000
17:13:59.372,-68.61,-9.21,141.98,-81.22,78.05,-69.94,0.28,-0.95,0.34,1000
17:13:59.377,-68.77,-9.92,141.22,-76.65,73.6,-68.11,0.28,-0.94,0.34,1000
17:13:59.388,-68.77,-10.76,140.48,-72.5,70.49,-65.67,0.28,-0.95,0.31,1000
17:13:59.401,-68.91,-11.38,139.77,-67.62,67.87,-64.02,0.29,-0.96,0.29,1000
17:13:59.412,-68.99,-12.06,139.07,-61.77,64.82,-63.48,0.28,-0.97,0.3,1000
17:13:59.422,-69.13,-12.52,138.37,-55.0,61.16,-64.21,0.29,-0.98,0.3,1000
17:13:59.456,-69.08,-13.1,137.66,-47.26,56.22,-65.49,0.3,-0.97,0.3,1000
17:13:59.456,-68.89,-13.72,136.93,-39.82,51.89,-66.4,0.3,-0.96,0.29,1000
17:13:59.469,-68.66,-14.3,136.2,-33.48,47.8,-65.67,0.31,-0.95,0.29,1000
17:13:59.469,-68.46,-14.79,135.49,-28.78,44.09,-63.17,0.33,-0.92,0.28,1000
17:13:59.476,-68.05,-15.48,134.81,-25.61,42.26,-59.57,0.34,-0.9,0.28,1000
17:13:59.489,-67.32,-16.47,134.18,-24.45,41.89,-54.76,0.36,-0.88,0.28,1000
17:13:59.525,-66.73,-17.25,133.66,-24.7,42.01,-49.7,0.37,-0.86,0.29,1000
17:13:59.529,-65.81,-18.35,133.04,-25.98,43.35,-44.21,0.38,-0.85,0.29,1000
17:13:59.529,-65.06,-19.25,132.62,-27.5,44.82,-40.12,0.37,-0.86,0.27,1000
17:13:59.535,-64.47,-20.03,132.19,-27.13,45.0,-38.35,0.38,-0.88,0.27,1000
17:13:59.543,-64.07,-20.6,131.78,-24.21,43.66,-36.65,0.38,-0.9,0.29,1000
17:13:59.553,-63.7,-21.05,131.38,-20.67,41.77,-35.0,0.38,-0.91,0.29,1000
17:13:59.573,-63.42,-21.34,131.0,-18.05,39.21,-33.05,0.38,-0.92,0.28,1000
17:13:59.583,-63.28,-21.55,130.65,-16.46,36.59,-30.85,0.38,-0.92,0.27,1000
17:13:59.616,-63.16,-21.77,130.32,-15.49,33.41,-28.29,0.39,-0.92,0.27,1000
17:13:59.616,-63.07,-22.01,130.02,-14.88,29.82,-25.61,0.38,-0.92,0.27,1000
17:13:59.616,-63.01,-22.24,129.75,-13.66,26.59,-23.78,0.39,-0.92,0.26,1000
17:13:59.619,-62.96,-22.51,129.5,-11.65,22.68,-21.52,0.39,-0.92,0.26,1000
17:13:59.632,-62.93,-22.75,129.27,-10.0,18.9,-19.63,0.39,-0.93,0.25,1000
17:13:59.645,-62.98,-22.98,129.06,-8.05,15.06,-18.23,0.39,-0.94,0.23,1000
17:13:59.656,-63.06,-23.21,128.87,-4.88,10.79,-17.2,0.42,-0.95,0.24,1000
17:13:59.663,-63.01,-23.52,128.7,-0.49,7.87,-15.49,0.41,-0.95,0.23,1000
17:13:59.679,-62.98,-23.83,128.53,3.66,5.12,-12.8,0.41,-0.94,0.21,1000
17:13:59.686,-62.93,-24.13,128.41,6.16,3.48,-9.09,0.43,-0.94,0.21,1000
17:13:59.696,-62.79,-24.53,128.33,7.38,2.8,-4.57,0.43,-0.93,0.19,1000
17:13:59.708,-62.65,-24.93,128.3,7.26,3.23,-0.12,0.43,-0.93,0.18,1000
17:13:59.718,-62.55,-25.26,128.32,7.99,4.51,3.96,0.44,-0.92,0.19,1000
17:13:59.730,-62.39,-25.6,128.39,9.63,7.32,8.72,0.42,-0.93,0.18,1000
17:13:59.740,-62.4,-25.7,128.5,11.77,9.57,11.65,0.41,-0.94,0.17,1000
17:13:59.752,-62.56,-25.58,128.65,15.85,11.77,14.45,0.4,-0.95,0.18,1000
17:13:59.764,-62.72,-25.41,128.81,21.4,12.26,16.77,0.36,-0.95,0.16,1000
17:13:59.775,-63.26,-24.83,129.0,26.89,11.71,17.62,0.33,-0.96,0.13,1000
17:13:59.784,-64.08,-24.02,129.2,33.48,10.24,16.83,0.31,-0.96,0.11,1000
17:13:59.797,-64.96,-23.17,129.37,39.88,7.93,14.88,0.3,-0.94,0.13,1000
17:13:59.811,-65.43,-22.62,129.53,47.13,4.94,12.99,0.29,-0.9,0.14,1000
17:13:59.832,-65.98,-21.94,129.67,52.56,2.99,12.5,0.29,-0.87,0.15,1000
17:13:59.832,-66.29,-21.43,129.81,55.37,3.23,13.6,0.28,-0.84,0.14,1000
17:13:59.841,-66.48,-21.06,129.97,55.49,5.61,15.98,0.28,-0.81,0.14,1000
17:13:59.856,-66.46,-20.85,130.16,54.45,9.88,18.35,0.29,-0.8,0.17,1000
17:13:59.879,-66.2,-20.76,130.37,53.35,15.61,21.34,0.29,-0.79,0.2,1000
17:13:59.879,-65.8,-20.6,130.62,52.26,21.16,23.29,0.27,-0.79,0.23,1000
17:13:59.883,-65.34,-20.31,130.88,51.52,25.49,23.66,0.28,-0.81,0.27,1000
17:13:59.914,-64.81,-19.92,131.14,51.65,27.99,22.44,0.24,-0.81,0.29,1000
17:13:59.915,-64.42,-19.29,131.35,51.4,27.8,20.18,0.23,-0.81,0.29,1000
17:13:59.921,-64.19,-18.44,131.58,50.12,26.65,17.99,0.21,-0.81,0.28,1000
17:13:59.931,-64.07,-17.72,131.77,47.62,24.88,16.83,0.21,-0.81,0.29,1000
17:13:59.939,-64.0,-17.03,131.96,43.6,22.68,16.52,0.21,-0.81,0.31,1000
17:13:59.977,-63.9,-16.37,132.14,38.66,20.06,16.95,0.22,-0.81,0.33,1000
17:13:59.977,-63.63,-15.9,132.33,34.15,17.2,17.5,0.22,-0.82,0.36,1000
17:13:59.978,-63.24,-15.52,132.54,29.21,13.72,17.74,0.21,-0.84,0.39,1000
17:13:59.994,-62.89,-15.18,132.72,25.98,9.76,17.07,0.21,-0.86,0.41,1000
17:14:00.015,-62.53,-14.86,132.9,23.9,4.15,14.94,0.2,-0.88,0.42,1000
17:14:00.016,-62.27,-14.53,133.04,22.07,-3.11,11.28,0.2,-0.89,0.42,1000
17:14:00.018,-62.1,-14.24,133.15,20.0,-11.65,6.77,0.21,-0.89,0.41,1000
17:14:00.026,-62.05,-14.09,133.21,18.41,-16.4,4.15,0.21,-0.89,0.4,1000
17:14:00.037,-62.11,-14.02,133.24,16.28,-19.45,2.26,0.23,-0.89,0.4,1000
17:14:00.066,-62.14,-14.18,133.26,14.09,-20.24,1.04,0.25,-0.9,0.41,1000
17:14:00.066,-62.08,-14.45,133.27,12.87,-19.45,0.18,0.26,-0.91,0.42,1000
17:14:00.071,-61.98,-14.7,133.26,12.99,-18.23,-1.28,0.26,-0.93,0.43,1000
17:14:00.082,-61.88,-14.94,133.23,14.51,-16.89,-4.15,0.25,-0.95,0.43,1000
17:14:00.092,-61.79,-15.03,133.17,17.44,-17.87,-7.13,0.25,-0.95,0.45,1000
17:14:00.103,-61.6,-15.06,133.08,22.13,-20.0,-9.7,0.24,-0.94,0.47,1000
17:14:00.114,-61.33,-15.09,132.97,26.34,-23.17,-10.85,0.23,-0.92,0.46,1000
17:14:00.127,-61.03,-15.03,132.85,29.7,-26.89,-10.18,0.23,-0.91,0.45,1000
17:14:00.136,-60.72,-15.0,132.75,32.32,-29.82,-7.32,0.25,-0.89,0.45,1000
17:14:00.148,-60.29,-15.14,132.69,33.17,-30.61,-2.93,0.26,-0.87,0.47,1000
17:14:00.171,-59.71,-15.45,132.69,33.05,-29.76,2.44,0.28,-0.86,0.49,1000
17:14:00.171,-58.87,-15.9,132.74,32.56,-27.68,6.71,0.3,-0.85,0.51,1000
17:14:00.180,-57.87,-16.43,132.82,32.32,-25.73,9.51,0.31,-0.83,0.54,1000
17:14:00.191,-56.89,-16.9,132.93,32.26,-24.02,11.04,0.3,-0.83,0.54,1000
17:14:00.202,-55.74,-17.34,133.07,32.93,-22.68,12.5,0.31,-0.83,0.55,1000
17:14:00.213,-54.81,-17.65,133.21,33.48,-22.2,14.51,0.3,-0.82,0.56,1000
17:14:00.226,-53.99,-17.82,133.38,33.72,-21.89,16.4,0.29,-0.81,0.54,1000
17:14:00.236,-53.45,-17.98,133.56,33.11,-21.28,18.17,0.3,-0.81,0.54,1000
17:14:00.251,-52.91,-18.12,133.79,31.16,-18.84,20.06,0.29,-0.8,0.54,1000
17:14:00.266,-52.52,-18.19,134.01,28.84,-15.91,19.7,0.31,-0.81,0.56,1000
17:14:00.271,-52.09,-18.31,134.21,26.83,-12.8,17.8,0.32,-0.8,0.58,1000
17:14:00.279,-51.61,-18.43,134.4,25.61,-9.33,15.55,0.31,-0.8,0.57,1000
17:14:00.300,-51.2,-18.44,134.55,24.51,-6.22,12.87,0.31,-0.81,0.58,1000
17:14:00.301,-50.84,-18.39,134.7,24.21,-3.23,10.67,0.3,-0.8,0.58,1000
17:14:00.313,-50.59,-18.2,134.8,24.39,-1.71,10.24,0.29,-0.8,0.59,1000
17:14:00.325,-50.34,-17.94,134.91,24.82,-1.34,10.49,0.28,-0.79,0.59,1000
17:14:00.334,-50.12,-17.6,135.03,24.45,-2.07,11.28,0.26,-0.79,0.59,1000
17:14:00.348,-50.04,-17.18,135.15,23.23,-4.33,10.85,0.26,-0.79,0.58,1000
17:14:00.361,-50.02,-16.81,135.26,22.01,-7.26,9.63,0.25,-0.79,0.59,1000
17:14:00.373,-49.98,-16.54,135.36,20.73,-10.79,7.32,0.25,-0.79,0.59,1000
17:14:00.378,-50.02,-16.23,135.43,18.41,-13.66,4.7,0.25,-0.8,0.58,1000
17:14:00.389,-50.08,-16.03,135.47,16.28,-16.1,2.93,0.26,-0.79,0.59,1000
17:14:00.400,-50.1,-15.94,135.5,13.72,-18.9,1.1,0.26,-0.78,0.59,1000
17:14:00.417,-50.09,-15.96,135.5,10.37,-21.83,-0.73,0.28,-0.78,0.58,1000
17:14:00.424,-50.07,-16.18,135.49,5.67,-25.24,-2.01,0.28,-0.78,0.58,1000
17:14:00.435,-50.15,-16.47,135.46,0.98,-28.29,-3.66,0.3,-0.79,0.56,1000
17:14:00.445,-50.34,-16.89,135.41,-3.9,-30.91,-5.12,0.32,-0.79,0.55,1000
17:14:00.456,-50.61,-17.41,135.35,-8.6,-31.95,-6.65,0.33,-0.81,0.54,1000
17:14:00.477,-50.98,-17.99,135.26,-13.48,-31.59,-8.6,0.34,-0.82,0.53,1000
17:14:00.477,-51.32,-18.51,135.16,-18.23,-30.24,-11.4,0.35,-0.82,0.52,1000
17:14:00.492,-51.8,-19.1,135.0,-23.41,-27.2,-15.91,0.36,-0.84,0.51,1000
17:14:00.501,-52.31,-19.55,134.82,-25.49,-22.8,-18.23,0.34,-0.78,0.56,1000
17:14:00.510,-52.67,-19.94,134.58,-29.09,-22.62,-25.0,0.35,-0.85,0.49,1000
17:14:00.527,-53.09,-20.12,134.32,-29.76,-19.39,-27.99,0.41,-0.91,0.56,1000
17:14:00.534,-53.46,-20.27,133.97,-27.07,-12.99,-31.34,0.35,-0.87,0.49,1000
17:14:00.543,-53.84,-20.24,133.61,-28.05,-12.56,-34.33,0.28,-0.79,0.5,1000
17:14:00.554,-54.12,-20.07,133.22,-24.63,-10.12,-36.89,0.35,-0.84,0.53,1000
17:14:00.566,-54.04,-20.2,132.8,-16.65,0.91,-38.78,0.42,-0.84,0.54,1000
17:14:00.577,-53.84,-20.51,132.37,-16.83,7.99,-40.06,0.4,-0.82,0.46,1000
17:14:00.587,-53.71,-20.85,131.92,-21.1,14.21,-41.22,0.39,-0.76,0.52,1000
17:14:00.598,-53.24,-21.19,131.46,-25.67,18.54,-42.26,0.38,-0.72,0.51,1000
17:14:00.609,-52.4,-21.55,130.99,-32.01,21.4,-43.48,0.39,-0.7,0.56,1000
17:14:00.621,-51.43,-21.81,130.46,-38.66,24.09,-44.27,0.37,-0.66,0.54,1000
17:14:00.631,-50.61,-21.97,130.02,-45.85,24.7,-44.45,0.39,-0.69,0.56,1000
17:14:00.642,-49.92,-22.19,129.57,-53.41,25.06,-44.88,0.39,-0.69,0.54,1000
17:14:00.655,-49.48,-22.46,129.03,-61.83,25.61,-45.61,0.4,-0.69,0.52,1000
17:14:00.664,-49.35,-22.74,128.52,-68.84,27.62,-46.59,0.41,-0.7,0.5,1000
17:14:00.679,-49.37,-23.06,128.05,-73.78,30.85,-47.68,0.43,-0.72,0.52,1000
17:14:00.686,-49.48,-23.46,127.48,-77.32,37.01,-48.72,0.46,-0.75,0.51,1000
17:14:00.699,-49.63,-23.86,126.94,-77.62,44.39,-48.78,0.47,-0.78,0.49,1000
17:14:00.709,-49.98,-24.17,126.4,-75.37,52.01,-47.68,0.48,-0.81,0.47,1000
17:14:00.719,-50.5,-24.31,125.89,-70.67,59.21,-46.34,0.48,-0.83,0.46,1000
17:14:00.733,-51.1,-24.37,125.38,-64.57,63.96,-45.43,0.47,-0.85,0.44,1000
17:14:00.741,-51.69,-24.37,124.93,-57.74,67.2,-44.82,0.47,-0.85,0.43,1000
17:14:00.754,-52.3,-24.36,124.4,-48.72,69.76,-42.99,0.47,-0.85,0.44,1000
17:14:00.765,-52.7,-24.25,123.94,-41.16,71.77,-40.55,0.46,-0.84,0.45,1000
17:14:00.774,-52.92,-24.04,123.51,-33.17,73.48,-37.01,0.44,-0.83,0.47,1000
17:14:00.785,-52.92,-23.79,123.12,-26.16,73.78,-32.93,0.43,-0.81,0.48,1000
17:14:00.796,-52.74,-23.48,122.78,-19.21,72.44,-28.11,0.41,-0.81,0.49,1000
17:14:00.807,-52.52,-23.06,122.5,-13.6,70.43,-23.48,0.38,-0.79,0.48,1000
17:14:00.818,-52.37,-22.46,122.26,-11.65,69.27,-19.21,0.34,-0.78,0.49,1000
17:14:00.829,-52.42,-21.77,122.07,-12.8,67.87,-14.33,0.36,-0.8,0.48,1000
17:14:00.841,-52.58,-21.17,121.93,-15.91,63.23,-10.55,0.34,-0.78,0.47,1000
17:14:00.851,-52.76,-20.65,121.83,-18.9,56.83,-8.6,0.34,-0.77,0.46,1000
17:14:00.866,-52.99,-20.29,121.73,-20.67,49.02,-8.96,0.33,-0.77,0.45,1000
17:14:00.883,-53.17,-20.13,121.63,-20.98,41.95,-9.63,0.33,-0.75,0.45,1000
17:14:00.885,-53.26,-20.06,121.53,-19.94,39.45,-9.39,0.3,-0.75,0.42,1000
17:14:00.895,-53.3,-20.11,121.43,-20.0,33.35,-7.8,0.35,-0.76,0.47,1000
17:14:00.906,-53.17,-20.45,121.35,-17.38,26.77,-5.98,0.4,-0.75,0.46,1000
17:14:00.922,-52.96,-20.86,121.3,-14.21,21.04,-3.72,0.37,-0.76,0.46,1000
17:14:00.928,-52.92,-21.1,121.26,-11.52,15.55,-2.07,0.33,-0.78,0.45,1000
17:14:00.939,-53.04,-21.25,121.25,-9.63,10.61,-0.43,0.35,-0.78,0.43,1000
17:14:00.950,-53.33,-21.43,121.25,-7.93,5.61,1.04,0.36,-0.78,0.42,1000
17:14:00.968,-53.55,-21.7,121.27,-5.18,-0.3,2.87,0.36,-0.77,0.42,1000
17:14:00.979,-53.63,-22.12,121.32,-1.95,-5.73,5.37,0.37,-0.77,0.42,1000
17:14:00.989,-53.65,-22.52,121.39,0.0,-9.27,8.29,0.37,-0.78,0.4,1000
17:14:00.995,-53.68,-22.88,121.49,0.12,-11.34,10.79,0.38,-0.79,0.4,1000
17:14:01.005,-53.78,-23.29,121.62,-0.61,-13.23,13.17,0.39,-0.79,0.39,1000
17:14:01.016,-53.94,-23.65,121.76,-2.01,-15.55,15.06,0.4,-0.81,0.39,1000
17:14:01.027,-54.17,-24.03,121.94,-3.54,-18.48,15.37,0.38,-0.8,0.39,1000
17:14:01.042,-54.44,-24.25,122.1,-5.3,-21.83,13.96,0.37,-0.8,0.38,1000
17:14:01.049,-54.69,-24.48,122.25,-8.41,-26.46,11.22,0.38,-0.82,0.38,1000
17:14:01.060,-55.02,-24.63,122.35,-11.71,-31.22,8.23,0.38,-0.82,0.38,1000
17:14:01.071,-55.46,-24.74,122.42,-15.91,-36.34,3.41,0.37,-0.81,0.37,1000
17:14:01.082,-55.84,-24.89,122.43,-19.63,-41.22,-1.59,0.4,-0.81,0.36,1000
17:14:01.093,-56.15,-25.27,122.39,-25.06,-44.82,-6.04,0.42,-0.82,0.34,1000
17:14:01.104,-56.44,-25.81,122.31,-31.46,-46.4,-9.7,0.43,-0.82,0.32,1000
17:14:01.115,-56.72,-26.44,122.18,-37.62,-46.04,-13.41,0.44,-0.82,0.31,1000
17:14:01.126,-56.91,-27.13,122.02,-42.68,-43.41,-16.89,0.47,-0.82,0.32,1000
17:14:01.137,-57.02,-27.82,121.81,-46.95,-40.06,-20.61,0.48,-0.83,0.3,1000
17:14:01.148,-57.1,-28.43,121.57,-50.49,-35.85,-24.63,0.49,-0.84,0.29,1000
17:14:01.159,-57.26,-29.01,121.28,-53.05,-32.74,-29.15,0.51,-0.85,0.26,1000
17:14:01.172,-57.43,-29.6,120.94,-54.27,-30.67,-33.72,0.52,-0.85,0.24,1000
17:14:01.189,-57.54,-30.18,120.54,-54.7,-28.9,-38.54,0.54,-0.85,0.22,1000
17:14:01.192,-57.53,-30.82,120.1,-55.0,-26.95,-41.65,0.55,-0.87,0.21,1000
17:14:01.203,-57.63,-31.37,119.64,-54.57,-24.51,-42.8,0.55,-0.86,0.21,1000
17:14:01.214,-57.58,-31.85,119.16,-53.78,-22.87,-42.93,0.55,-0.86,0.19,1000
17:14:01.227,-57.55,-32.27,118.7,-52.2,-22.01,-41.89,0.56,-0.86,0.19,1000
17:14:01.237,-57.5,-32.65,118.25,-50.37,-22.5,-40.18,0.56,-0.86,0.18,1000
17:14:01.247,-57.49,-33.0,117.82,-48.6,-23.23,-37.8,0.56,-0.86,0.16,1000
17:14:01.258,-57.4,-33.29,117.41,-46.77,-23.96,-34.88,0.57,-0.86,0.14,1000
17:14:01.270,-57.3,-33.61,117.04,-44.09,-23.35,-32.62,0.57,-0.84,0.14,1000
17:14:01.295,-57.1,-33.99,116.69,-41.4,-22.07,-30.73,0.58,-0.86,0.16,1000
17:14:01.296,-56.9,-34.36,116.36,-38.78,-19.33,-28.23,0.57,-0.79,0.16,1000
17:14:01.303,-56.36,-34.77,116.04,-38.23,-18.6,-26.4,0.6,-0.78,0.18,1000
17:14:01.313,-55.89,-35.19,115.77,-36.89,-15.43,-25.79,0.64,-0.85,0.16,1000
17:14:01.324,-55.37,-35.67,115.49,-39.33,-15.43,-25.61,0.6,-0.85,0.14,1000
17:14:01.335,-55.06,-35.99,115.21,-40.0,-13.66,-25.12,0.59,-0.81,0.13,1000
17:14:01.348,-54.78,-36.27,114.94,-38.96,-10.73,-25.49,0.6,-0.82,0.15,1000
17:14:01.357,-54.44,-36.53,114.66,-36.22,-7.13,-26.04,0.58,-0.78,0.15,1000
17:14:01.368,-54.1,-36.74,114.36,-34.33,-4.33,-26.83,0.56,-0.75,0.12,1000
17:14:01.379,-53.93,-36.8,114.07,-36.95,-1.52,-25.24,0.57,-0.76,0.09,1000
17:14:01.396,-53.85,-36.9,113.82,-41.04,0.37,-20.98,0.56,-0.78,0.1,1000
17:14:01.401,-53.67,-37.1,113.62,-43.72,-0.06,-17.2,0.59,-0.72,0.1,1000
17:14:01.412,-53.45,-37.41,113.44,-46.65,-1.83,-12.68,0.59,-0.76,0.11,1000
17:14:01.423,-53.15,-37.7,113.32,-44.63,-2.2,-8.84,0.61,-0.75,0.11,1000
17:14:01.436,-52.84,-37.95,113.25,-42.44,-3.9,-4.7,0.62,-0.73,0.1,1000
17:14:01.449,-52.72,-38.12,113.22,-40.06,-5.18,0.12,0.64,-0.82,0.14,1000
17:14:01.456,-52.63,-38.16,113.24,-37.99,-5.98,4.33,0.61,-0.82,0.09,1000
17:14:01.468,-52.66,-38.05,113.31,-29.27,-4.21,8.11,0.61,-0.84,0.12,1000
17:14:01.478,-52.79,-37.79,113.42,-16.83,-0.73,11.59,0.61,-0.9,0.06,1000
17:14:01.491,-52.93,-37.46,113.56,-6.71,0.79,14.63,0.61,-0.9,0.09,1000
17:14:01.500,-53.14,-37.0,113.74,1.83,0.85,17.68,0.6,-0.89,0.05,1000
17:14:01.511,-53.37,-36.51,113.94,9.09,0.0,20.3,0.57,-0.89,0.08,1000
17:14:01.522,-53.7,-35.9,114.18,15.91,-2.99,22.93,0.56,-0.89,0.08,1000
17:14:01.533,-54.01,-35.35,114.44,21.22,-6.83,25.55,0.54,-0.88,0.09,1000
17:14:01.544,-54.47,-34.7,114.74,24.94,-11.52,27.56,0.51,-0.87,0.07,1000
17:14:01.558,-54.75,-34.26,115.05,28.41,-16.71,29.33,0.53,-0.87,0.07,1000
17:14:01.566,-55.08,-33.86,115.37,31.46,-21.77,30.3,0.52,-0.86,0.07,1000
17:14:01.585,-55.33,-33.57,115.71,34.09,-26.22,30.98,0.53,-0.86,0.09,1000
17:14:01.588,-55.4,-33.45,116.06,36.22,-29.45,31.59,0.54,-0.85,0.1,1000
17:14:01.600,-55.32,-33.47,116.41,37.32,-30.91,32.01,0.53,-0.84,0.12,1000
17:14:01.610,-55.19,-33.54,116.73,37.13,-30.55,32.13,0.54,-0.83,0.11,1000
17:14:01.621,-54.87,-33.76,117.11,34.88,-28.11,31.16,0.55,-0.81,0.14,1000
17:14:01.632,-54.43,-34.11,117.45,31.65,-25.3,29.94,0.57,-0.8,0.13,1000
17:14:01.643,-53.89,-34.55,117.77,28.35,-22.5,29.09,0.57,-0.78,0.14,1000
17:14:01.654,-53.41,-34.93,118.09,25.91,-19.33,28.96,0.56,-0.78,0.14,1000
17:14:01.665,-53.05,-35.18,118.41,24.21,-16.4,29.88,0.55,-0.78,0.16,1000
17:14:01.676,-52.84,-35.28,118.75,22.56,-14.15,31.1,0.54,-0.78,0.15,1000
17:14:01.687,-52.79,-35.22,119.1,21.22,-13.54,33.84,0.52,-0.79,0.15,1000
17:14:01.700,-53.01,-34.95,119.49,21.16,-13.72,36.65,0.5,-0.8,0.15,1000
17:14:01.709,-53.34,-34.55,119.91,22.2,-15.06,40.73,0.48,-0.8,0.15,1000
17:14:01.724,-53.73,-34.09,120.38,24.7,-17.32,45.43,0.47,-0.81,0.16,1000
17:14:01.731,-54.22,-33.5,120.91,27.74,-20.37,50.79,0.45,-0.82,0.17,1000
17:14:01.742,-54.92,-32.68,121.5,31.04,-24.33,57.07,0.42,-0.83,0.19,1000
17:14:01.753,-55.46,-31.97,122.1,34.02,-29.51,63.6,0.4,-0.83,0.22,1000
17:14:01.765,-56.4,-30.73,122.9,37.5,-38.29,71.4,0.39,-0.83,0.22,1000
17:14:01.775,-57.21,-29.69,123.72,40.06,-47.87,79.51,0.36,-0.85,0.2,1000
17:14:01.786,-58.3,-28.57,124.64,42.99,-57.99,87.13,0.34,-0.87,0.17,1000
17:14:01.797,-59.39,-27.64,125.64,45.79,-65.37,95.49,0.34,-0.9,0.15,1000
17:14:01.809,-60.77,-26.61,126.73,50.67,-71.4,104.02,0.36,-0.94,0.14,1000
17:14:01.820,-61.83,-25.94,127.91,59.63,-78.72,111.83,0.37,-0.93,0.08,1000
17:14:01.833,-62.84,-25.29,129.18,68.05,-78.23,119.09,0.36,-0.96,0.1,1000
17:14:01.842,-63.57,-24.72,130.51,77.32,-75.06,122.99,0.32,-1.03,0.11,1000
17:14:01.852,-64.23,-24.03,131.87,85.43,-70.61,124.21,0.32,-1.02,0.15,1000
17:14:01.865,-64.96,-23.09,133.23,90.55,-65.55,122.26,0.31,-1.0,0.16,1000
17:14:01.875,-65.47,-22.19,134.56,93.72,-60.43,117.8,0.3,-0.99,0.2,1000
17:14:01.885,-65.8,-21.32,135.83,93.72,-56.89,112.5,0.28,-0.95,0.2,1000
17:14:01.907,-65.97,-20.59,137.03,89.94,-54.21,106.04,0.3,-0.89,0.26,1000
17:14:01.910,-66.29,-19.5,138.16,82.68,-51.89,98.72,0.21,-0.89,0.24,1000
17:14:01.918,-66.39,-18.63,139.21,72.62,-51.71,91.16,0.22,-0.87,0.28,1000
17:14:01.929,-66.52,-17.6,140.17,59.7,-50.61,82.38,0.22,-0.86,0.27,1000
17:14:01.943,-66.64,-16.78,141.04,46.28,-48.78,73.9,0.2,-0.85,0.29,1000
17:14:01.957,-66.82,-15.96,141.87,29.27,-45.3,64.09,0.19,-0.85,0.29,1000
17:14:01.962,-67.01,-15.37,142.48,15.24,-41.83,55.79,0.2,-0.85,0.32,1000
17:14:01.973,-67.16,-14.7,143.0,2.44,-37.74,46.52,0.19,-0.85,0.31,1000
17:14:01.987,-67.41,-14.2,143.46,-9.76,-33.17,35.55,0.2,-0.86,0.31,1000
17:14:02.002,-67.78,-13.57,143.84,-24.45,-26.52,22.56,0.19,-0.81,0.27,1000
17:14:02.015,-67.97,-13.39,144.0,-25.18,-14.02,12.68,0.27,-0.93,0.37,1000
17:14:02.017,-68.08,-13.31,144.1,-30.3,4.7,2.87,0.31,-0.99,0.23,1000
17:14:02.028,-68.66,-13.08,144.1,-35.12,14.09,-2.32,0.21,-0.96,0.27,1000
17:14:02.039,-69.61,-12.52,144.06,-37.38,19.09,-5.49,0.19,-0.98,0.23,1000
17:14:02.051,-70.54,-11.76,143.99,-37.56,27.26,-6.46,0.12,-1.05,0.28,1000
17:14:02.065,-71.4,-10.85,143.93,-35.85,33.17,-4.63,0.23,-1.02,0.26,1000
17:14:02.074,-72.29,-10.03,143.88,-34.94,34.63,-2.5,0.18,-1.01,0.22,1000
17:14:02.083,-73.34,-9.15,143.86,-31.28,31.52,-1.83,0.13,-1.03,0.2,1000
17:14:02.094,-74.38,-8.22,143.85,-27.13,28.05,-0.06,0.15,-1.02,0.25,1000
17:14:02.106,-75.14,-7.31,143.86,-23.96,27.01,1.22,0.1,-1.04,0.23,1000
17:14:02.116,-75.88,-6.33,143.87,-22.99,24.51,1.46,0.05,-1.05,0.24,1000
17:14:02.127,-76.48,-5.3,143.89,-22.13,21.77,1.83,0.08,-1.04,0.26,1000
17:14:02.143,-76.83,-4.45,143.9,-21.95,16.95,0.43,0.09,-1.02,0.26,1000
17:14:02.150,-76.98,-3.81,143.89,-19.02,12.68,-2.2,0.06,-1.04,0.31,1000
17:14:02.160,-76.76,-3.4,143.86,-15.91,11.83,-5.24,0.06,-0.97,0.18,1000
17:14:02.172,-76.86,-3.2,143.78,-14.51,5.3,-9.57,0.1,-1.04,0.26,1000
17:14:02.183,-77.01,-3.04,143.66,-13.96,6.46,-12.07,0.05,-0.95,0.17,1000
17:14:02.193,-77.45,-3.02,143.51,-18.29,0.73,-14.76,0.11,-1.03,0.22,1000
17:14:02.207,-77.91,-3.21,143.34,-20.3,-0.18,-16.4,0.15,-0.96,0.14,1000
17:14:02.219,-78.33,-3.65,143.16,-26.1,-0.91,-17.13,0.19,-0.97,0.2,1000
17:14:02.226,-78.43,-4.17,142.98,-29.02,1.77,-19.02,0.18,-1.0,0.19,1000
17:14:02.237,-78.37,-4.99,142.74,-32.8,5.24,-21.77,0.17,-0.95,0.15,1000
17:14:02.250,-78.3,-5.85,142.48,-35.0,7.62,-25.79,0.22,-1.0,0.14,1000
17:14:02.259,-78.16,-6.86,142.18,-36.34,10.91,-29.15,0.16,-0.92,0.21,1000
17:14:02.270,-77.94,-7.57,141.83,-41.04,14.15,-32.99,0.25,-1.01,0.21,1000
17:14:02.281,-77.73,-7.97,141.46,-42.87,17.01,-35.73,0.22,-1.03,0.2,1000
17:14:02.294,-77.61,-8.36,141.05,-43.17,18.05,-38.23,0.21,-1.0,0.17,1000
17:14:02.309,-77.78,-8.65,140.62,-29.27,8.11,-40.49,0.36,-0.87,0.08,1000
17:14:02.319,-75.54,-11.84,140.19,-20.49,-11.59,-40.55,0.47,-0.89,-0.24,1000
