Timestamp,Roll,Pitch,Yaw,Gyro_X,Gyro_Y,Gyro_Z,Accel_X,Accel_Y,Accel_Z,Throttle
16:16:30.591,15.77,-8.16,-236.87,-0.06,-0.06,-0.43,0.14,0.28,0.98,1000
16:16:30.591,15.77,-8.16,-236.87,-0.06,-0.06,-0.61,0.14,0.28,0.98,1000
16:16:30.593,15.77,-8.16,-236.87,0.0,-0.18,-0.55,0.14,0.28,0.98,1000
16:16:30.595,15.77,-8.16,-236.87,-0.12,-0.3,-0.37,0.14,0.28,0.98,1000
16:16:30.597,15.77,-8.16,-236.87,-0.06,-0.12,-0.37,0.14,0.28,0.98,1000
16:16:30.600,15.77,-8.16,-236.87,-0.12,-0.3,-0.3,0.14,0.28,0.98,1000
16:16:30.601,15.77,-8.16,-236.88,-0.12,-0.3,-0.61,0.14,0.28,0.98,1000
16:16:30.603,15.77,-8.16,-236.88,-0.18,-0.3,-0.37,0.14,0.28,0.98,1000
16:16:30.605,15.77,-8.16,-236.88,-0.06,-0.24,-0.37,0.14,0.28,0.98,1000
16:16:30.608,15.77,-8.15,-236.88,-0.06,-0.18,-0.49,0.14,0.28,0.98,1000
16:16:30.608,15.77,-8.15,-236.88,-0.18,-0.37,-0.43,0.14,0.28,0.98,1000
16:16:30.610,15.77,-8.15,-236.88,-0.18,-0.24,-0.43,0.14,0.28,0.98,1000
16:16:30.626,15.77,-8.15,-236.88,-0.3,-0.37,-0.37,0.14,0.28,0.98,1000
16:16:30.626,15.77,-8.15,-236.88,-0.37,-0.37,-0.37,0.14,0.28,0.98,1000
16:16:30.626,15.77,-8.15,-236.88,-0.37,-0.37,-0.49,0.14,0.28,0.98,1000
16:16:30.626,15.77,-8.15,-236.88,-0.49,-0.3,-0.37,0.14,0.28,0.98,1000
16:16:30.626,15.77,-8.15,-236.88,-0.61,-0.24,-0.37,0.14,0.28,0.98,1000
16:16:30.626,15.77,-8.15,-236.88,-0.37,-0.49,-0.18,0.14,0.28,0.98,1000
16:16:30.626,15.77,-8.15,-236.88,-0.49,-0.18,-0.37,0.14,0.28,0.98,1000
16:16:30.628,15.77,-8.15,-236.88,-0.43,-0.37,-0.37,0.14,0.28,0.98,1000
16:16:30.628,15.77,-8.15,-236.88,-0.37,-0.43,-0.37,0.14,0.28,0.98,1000
16:16:30.630,15.77,-8.15,-236.88,-0.37,-0.49,-0.37,0.14,0.28,0.98,1000
16:16:30.632,15.77,-8.15,-236.88,-0.24,-0.37,-0.43,0.14,0.28,0.98,1000
16:16:30.634,15.77,-8.15,-236.88,-0.43,-0.43,-0.37,0.15,0.28,0.98,1000
16:16:30.636,15.77,-8.15,-236.88,-0.43,-0.37,-0.37,0.14,0.28,0.98,1000
16:16:30.638,15.77,-8.15,-236.89,-0.3,-0.55,-0.55,0.15,0.28,0.98,1000
16:16:30.640,15.77,-8.15,-236.89,-0.49,-0.37,-0.43,0.15,0.27,0.98,1000
16:16:30.642,15.77,-8.15,-236.89,-0.3,-0.37,-0.43,0.14,0.28,0.98,1000
16:16:30.644,15.77,-8.15,-236.89,-0.37,-0.37,-0.37,0.15,0.27,0.98,1000
16:16:30.646,15.76,-8.15,-236.89,-0.3,-0.3,-0.37,0.15,0.28,0.98,1000
16:16:30.648,15.76,-8.15,-236.89,-0.3,-0.3,-0.43,0.15,0.28,0.98,1000
16:16:30.651,15.76,-8.15,-236.89,-0.3,-0.3,-0.37,0.14,0.27,0.98,1000
16:16:30.652,15.76,-8.15,-236.89,-0.24,-0.3,-0.37,0.15,0.28,0.98,1000
16:16:30.654,15.76,-8.15,-236.89,-0.24,-0.24,-0.37,0.14,0.28,0.98,1000
16:16:30.657,15.76,-8.15,-236.89,-0.18,-0.12,-0.37,0.15,0.28,0.98,1000
16:16:30.658,15.76,-8.15,-236.89,-0.18,-0.12,-0.43,0.15,0.28,0.98,1000
16:16:30.660,15.76,-8.15,-236.89,-0.18,-0.12,-0.37,0.15,0.28,0.98,1000
16:16:30.662,15.76,-8.15,-236.89,-0.06,-0.24,-0.49,0.15,0.28,0.98,1000
16:16:30.664,15.76,-8.15,-236.89,-0.12,-0.06,-0.43,0.15,0.28,0.98,1000
16:16:30.668,15.76,-8.15,-236.89,0.06,-0.06,-0.55,0.15,0.28,0.98,1000
16:16:30.668,15.76,-8.15,-236.89,0.12,0.0,-0.49,0.15,0.28,0.98,1000
16:16:30.670,15.76,-8.15,-236.89,0.06,0.0,-0.37,0.14,0.28,0.98,1000
16:16:30.672,15.76,-8.15,-236.89,0.12,-0.06,-0.55,0.14,0.28,0.98,1000
16:16:30.674,15.76,-8.15,-236.9,0.24,-0.06,-0.55,0.14,0.28,0.98,1000
16:16:30.676,15.76,-8.15,-236.9,0.06,-0.06,-0.49,0.14,0.29,0.98,1000
16:16:30.678,15.76,-8.15,-236.9,-0.06,-0.12,-0.37,0.15,0.28,0.98,1000
16:16:30.680,15.76,-8.15,-236.9,-0.06,-0.12,-0.43,0.15,0.28,0.98,1000
16:16:30.682,15.76,-8.15,-236.9,-0.18,-0.06,-0.49,0.14,0.28,0.98,1000
16:16:30.684,15.76,-8.15,-236.9,-0.24,-0.24,-0.67,0.15,0.28,0.98,1000
16:16:30.688,15.76,-8.15,-236.9,-0.18,-0.18,-0.49,0.14,0.28,0.98,1000
16:16:30.688,15.76,-8.15,-236.9,-0.3,-0.18,-0.43,0.14,0.28,0.98,1000
16:16:30.694,15.76,-8.15,-236.9,-0.24,-0.3,-0.37,0.15,0.28,0.98,1000
16:16:30.694,15.76,-8.15,-236.9,-0.24,-0.3,-0.43,0.15,0.28,0.98,1000
16:16:30.694,15.76,-8.15,-236.9,-0.24,-0.3,-0.49,0.15,0.28,0.98,1000
16:16:30.696,15.76,-8.15,-236.9,-0.24,-0.3,-0.43,0.14,0.28,0.98,1000
16:16:30.698,15.76,-8.15,-236.9,-0.37,-0.12,-0.49,0.14,0.28,0.98,1000
16:16:30.700,15.76,-8.15,-236.9,-0.24,-0.3,-0.49,0.14,0.28,0.98,1000
16:16:30.702,15.76,-8.15,-236.9,-0.24,-0.43,-0.49,0.14,0.28,0.98,1000
16:16:30.704,15.76,-8.15,-236.9,-0.3,-0.3,-0.37,0.14,0.28,0.98,1000
16:16:30.706,15.76,-8.15,-236.91,-0.24,-0.37,-0.49,0.15,0.29,0.98,1000
16:16:30.708,15.76,-8.15,-236.91,-0.3,-0.43,-0.43,0.14,0.28,0.98,1000
16:16:30.710,15.76,-8.15,-236.91,-0.3,-0.37,-0.43,0.15,0.28,0.98,1000
16:16:30.727,15.76,-8.15,-236.91,-0.43,-0.37,-0.49,0.14,0.28,0.98,1000
16:16:30.728,15.76,-8.15,-236.91,-0.37,-0.24,-0.43,0.14,0.28,0.98,1000
16:16:30.728,15.76,-8.15,-236.91,-0.43,-0.3,-0.49,0.14,0.28,0.98,1000
16:16:30.728,15.76,-8.15,-236.91,-0.43,-0.3,-0.61,0.15,0.28,0.98,1000
16:16:30.728,15.76,-8.15,-236.91,-0.43,-0.3,-0.37,0.14,0.28,0.98,1000
16:16:30.729,15.76,-8.15,-236.91,-0.18,-0.43,-0.43,0.14,0.28,0.98,1000
16:16:30.729,15.76,-8.15,-236.91,-0.18,-0.37,-0.49,0.14,0.28,0.98,1000
16:16:30.729,15.76,-8.15,-236.91,-0.24,-0.49,-0.49,0.14,0.28,0.98,1000
16:16:30.729,15.76,-8.15,-236.91,-0.43,-0.37,-0.49,0.14,0.28,0.98,1000
16:16:30.730,15.76,-8.15,-236.91,-0.18,-0.43,-0.61,0.15,0.28,0.98,1000
16:16:30.732,15.76,-8.15,-236.91,-0.37,-0.49,-0.43,0.15,0.28,0.98,1000
16:16:30.734,15.76,-8.15,-236.91,-0.24,-0.43,-0.37,0.14,0.28,0.98,1000
16:16:30.737,15.76,-8.15,-236.91,-0.24,-0.24,-0.37,0.14,0.28,0.98,1000
16:16:30.739,15.76,-8.15,-236.91,-0.37,-0.24,-0.37,0.15,0.28,0.98,1000
16:16:30.740,15.76,-8.15,-236.92,-0.3,-0.37,-0.49,0.14,0.28,0.98,1000
16:16:30.742,15.76,-8.15,-236.92,-0.18,-0.24,-0.37,0.14,0.28,0.98,1000
16:16:30.744,15.76,-8.15,-236.92,-0.3,-0.3,-0.49,0.15,0.28,0.98,1000
16:16:30.746,15.76,-8.15,-236.92,-0.24,-0.3,-0.55,0.14,0.28,0.98,1000
16:16:30.748,15.76,-8.15,-236.92,-0.12,-0.37,-0.37,0.15,0.28,0.98,1000
16:16:30.752,15.76,-8.15,-236.92,-0.18,-0.3,-0.37,0.15,0.28,0.98,1000
16:16:30.753,15.76,-8.15,-236.92,-0.12,-0.3,-0.37,0.15,0.28,0.98,1000
16:16:30.754,15.76,-8.15,-236.92,-0.24,-0.18,-0.37,0.15,0.28,0.98,1000
16:16:30.756,15.76,-8.15,-236.92,-0.18,-0.24,-0.43,0.14,0.28,0.98,1000
16:16:30.758,15.76,-8.15,-236.92,-0.24,-0.3,-0.3,0.14,0.28,0.98,1000
16:16:30.762,15.76,-8.15,-236.92,-0.12,-0.18,-0.43,0.15,0.28,0.98,1000
16:16:30.762,15.76,-8.15,-236.92,-0.12,-0.37,-0.49,0.14,0.28,0.98,1000
16:16:30.764,15.76,-8.15,-236.92,-0.18,-0.24,-0.55,0.15,0.28,0.98,1000
16:16:30.766,15.76,-8.15,-236.92,-0.18,-0.3,-0.49,0.15,0.28,0.98,1000
16:16:30.768,15.76,-8.15,-236.92,-0.06,-0.3,-0.55,0.14,0.28,0.98,1000
16:16:30.770,15.76,-8.15,-236.92,-0.12,-0.18,-0.37,0.14,0.28,0.98,1000
16:16:30.774,15.76,-8.15,-236.92,-0.12,-0.12,-0.43,0.14,0.28,0.98,1000
16:16:30.774,15.76,-8.15,-236.92,-0.3,-0.18,-0.37,0.14,0.28,0.98,1000
16:16:30.776,15.76,-8.15,-236.93,-0.18,-0.06,-0.37,0.14,0.28,0.98,1000
16:16:30.781,15.76,-8.15,-236.93,-0.18,-0.18,-0.37,0.14,0.28,0.98,1000
16:16:30.781,15.76,-8.15,-236.93,-0.12,-0.37,-0.43,0.14,0.28,0.98,1000
16:16:30.783,15.76,-8.15,-236.93,-0.24,-0.37,-0.37,0.14,0.28,0.98,1000
16:16:30.784,15.76,-8.15,-236.93,-0.18,-0.43,-0.49,0.14,0.28,0.98,1000
16:16:30.786,15.76,-8.14,-236.93,-0.24,-0.18,-0.55,0.14,0.28,0.98,1000
16:16:30.790,15.76,-8.14,-236.93,-0.37,-0.37,-0.43,0.14,0.28,0.98,1000
16:16:30.790,15.76,-8.14,-236.93,-0.3,-0.3,-0.43,0.14,0.28,0.98,1000
16:16:30.792,15.76,-8.14,-236.93,-0.18,-0.3,-0.49,0.14,0.28,0.98,1000
16:16:30.795,15.76,-8.14,-236.93,-0.3,-0.3,-0.55,0.15,0.28,0.98,1000
16:16:30.796,15.76,-8.14,-236.93,-0.18,-0.37,-0.37,0.14,0.28,0.98,1000
16:16:30.800,15.76,-8.14,-236.93,-0.18,-0.18,-0.43,0.14,0.28,0.98,1000
16:16:30.800,15.76,-8.14,-236.93,-0.12,-0.37,-0.37,0.14,0.29,0.98,1000
16:16:30.802,15.76,-8.14,-236.93,-0.24,-0.37,-0.43,0.14,0.28,0.98,1000
16:16:30.804,15.76,-8.14,-236.93,-0.18,-0.37,-0.55,0.14,0.28,0.98,1000
16:16:30.807,15.76,-8.14,-236.94,-0.3,-0.24,-0.43,0.14,0.28,0.98,1000
16:16:30.808,15.76,-8.14,-236.94,-0.37,-0.12,-0.55,0.15,0.28,0.98,1000
16:16:30.810,15.76,-8.14,-236.94,-0.18,-0.3,-0.55,0.15,0.28,0.98,1000
16:16:30.812,15.76,-8.14,-236.94,-0.37,-0.24,-0.43,0.15,0.28,0.98,1000
16:16:30.814,15.76,-8.14,-236.94,-0.37,-0.37,-0.49,0.14,0.28,0.98,1000
16:16:30.816,15.76,-8.14,-236.94,-0.24,-0.37,-0.55,0.14,0.28,0.98,1000
16:16:30.818,15.76,-8.14,-236.94,-0.24,-0.24,-0.49,0.15,0.28,0.98,1000
16:16:30.820,15.76,-8.14,-236.94,-0.18,-0.3,-0.37,0.15,0.28,0.98,1000
16:16:30.822,15.76,-8.14,-236.94,-0.3,-0.3,-0.49,0.14,0.28,0.98,1000
16:16:30.824,15.76,-8.14,-236.94,-0.24,-0.24,-0.55,0.15,0.28,0.98,1000
16:16:30.826,15.76,-8.14,-236.94,-0.24,-0.24,-0.43,0.15,0.28,0.98,1000
16:16:30.828,15.76,-8.14,-236.94,-0.3,-0.24,-0.43,0.14,0.28,0.98,1000
16:16:30.830,15.76,-8.14,-236.94,-0.24,-0.24,-0.37,0.15,0.28,0.98,1000
16:16:30.832,15.76,-8.14,-236.94,-0.18,-0.24,-0.49,0.15,0.28,0.98,1000
16:16:30.834,15.76,-8.14,-236.95,-0.37,-0.3,-0.37,0.15,0.28,0.98,1000
16:16:30.838,15.76,-8.14,-236.95,-0.24,-0.06,-0.43,0.15,0.28,0.98,1000
16:16:30.838,15.76,-8.14,-236.95,-0.37,-0.37,-0.43,0.14,0.28,0.98,1000
16:16:30.840,15.76,-8.14,-236.95,-0.18,-0.24,-0.37,0.15,0.28,0.98,1000
16:16:30.842,15.76,-8.14,-236.95,-0.18,-0.37,-0.55,0.15,0.28,0.98,1000
16:16:30.844,15.76,-8.14,-236.95,-0.18,-0.18,-0.61,0.14,0.28,0.98,1000
16:16:30.846,15.76,-8.14,-236.95,-0.3,-0.24,-0.37,0.15,0.28,0.98,1000
16:16:30.848,15.76,-8.14,-236.95,-0.24,-0.3,-0.37,0.14,0.28,0.98,1000
16:16:30.850,15.76,-8.14,-236.95,-0.18,-0.43,-0.61,0.15,0.28,0.98,1000
16:16:30.853,15.76,-8.14,-236.95,-0.12,-0.37,-0.37,0.15,0.28,0.98,1000
16:16:30.855,15.76,-8.14,-236.95,-0.24,-0.18,-0.43,0.15,0.28,0.98,1000
16:16:30.856,15.76,-8.14,-236.95,-0.06,-0.3,-0.37,0.15,0.28,0.98,1000
16:16:30.858,15.76,-8.14,-236.95,-0.18,-0.3,-0.37,0.14,0.28,0.98,1000
16:16:30.860,15.76,-8.15,-236.95,-0.24,-0.18,-0.61,0.15,0.28,0.98,1000
16:16:30.862,15.76,-8.15,-236.95,-0.24,-0.3,-0.43,0.14,0.28,0.98,1000
16:16:30.864,15.76,-8.15,-236.96,-0.18,-0.18,-0.49,0.14,0.28,0.98,1000
16:16:30.866,15.76,-8.15,-236.96,-0.12,-0.12,-0.61,0.14,0.28,0.98,1000
16:16:30.868,15.76,-8.15,-236.96,-0.18,-0.12,-0.49,0.14,0.28,0.98,1000
16:16:30.870,15.76,-8.14,-236.96,-0.12,0.0,-0.43,0.14,0.28,0.98,1000
16:16:30.872,15.76,-8.14,-236.96,-0.24,-0.18,-0.37,0.14,0.28,0.98,1000
16:16:30.874,15.76,-8.14,-236.96,-0.06,-0.12,-0.37,0.14,0.28,0.98,1000
16:16:30.876,15.76,-8.14,-236.96,0.06,-0.24,-0.49,0.15,0.29,0.98,1000
16:16:30.878,15.76,-8.14,-236.96,-0.3,-0.12,-0.43,0.14,0.27,0.97,1000
16:16:30.881,15.76,-8.14,-236.96,0.0,-0.24,-0.3,0.15,0.3,0.98,1000
16:16:30.882,15.76,-8.14,-236.96,-0.18,-0.3,-0.49,0.13,0.27,1.0,1000
16:16:30.884,15.76,-8.14,-236.96,-0.3,-0.12,-0.67,0.15,0.27,0.96,1000
16:16:30.886,15.76,-8.14,-236.96,0.0,-0.61,-0.37,0.14,0.29,0.99,1000
16:16:30.888,15.76,-8.14,-236.96,-0.49,0.0,-0.49,0.14,0.28,0.98,1000
16:16:30.893,15.76,-8.14,-236.96,0.06,-0.43,-0.49,0.15,0.28,0.98,1000
16:16:30.893,15.76,-8.14,-236.96,-0.12,-0.37,-0.43,0.14,0.29,0.99,1000
16:16:30.897,15.76,-8.14,-236.96,-0.67,-0.24,-0.43,0.14,0.27,0.97,1000
16:16:30.898,15.76,-8.14,-236.97,0.12,-0.49,-0.37,0.15,0.29,0.98,1000
16:16:30.898,15.76,-8.14,-236.97,-0.37,0.12,-0.37,0.14,0.27,0.97,1000
16:16:30.900,15.76,-8.14,-236.97,-0.37,-0.49,-0.12,0.15,0.29,0.98,1000
16:16:30.902,15.76,-8.14,-236.97,-0.12,-0.67,-0.43,0.14,0.28,0.99,1000
16:16:30.904,15.76,-8.14,-236.97,-0.61,0.0,-0.61,0.15,0.28,0.96,1000
16:16:30.908,15.76,-8.14,-236.97,-0.18,-0.55,-0.49,0.14,0.28,0.99,1000
16:16:30.908,15.76,-8.14,-236.97,-0.43,-0.18,-0.61,0.14,0.27,0.97,1000
16:16:30.910,15.76,-8.14,-236.97,-0.24,-0.67,-0.3,0.15,0.29,0.98,1000
16:16:30.912,15.76,-8.14,-236.97,-0.43,-0.37,-0.49,0.15,0.28,0.98,1000
16:16:30.914,15.76,-8.14,-236.97,-0.24,-0.3,-0.43,0.14,0.28,0.98,1000
16:16:30.916,15.76,-8.14,-236.97,-0.12,-0.18,-0.37,0.15,0.28,0.98,1000
16:16:30.931,15.76,-8.14,-236.97,-0.43,-0.37,-0.49,0.14,0.28,0.98,1000
16:16:30.932,15.76,-8.14,-236.97,-0.37,-0.37,-0.43,0.14,0.28,0.98,1000
16:16:30.932,15.76,-8.14,-236.97,-0.12,-0.61,-0.49,0.15,0.28,0.98,1000
16:16:30.932,15.76,-8.14,-236.97,-0.43,-0.24,-0.49,0.14,0.28,0.98,1000
16:16:30.932,15.76,-8.14,-236.97,-0.24,-0.61,-0.49,0.15,0.29,0.98,1000
16:16:30.932,15.76,-8.14,-236.97,-0.3,-0.12,-0.37,0.14,0.28,0.98,1000
16:16:30.932,15.76,-8.14,-236.98,-0.37,-0.18,-0.79,0.15,0.28,0.98,1000
16:16:30.932,15.76,-8.14,-236.98,-0.18,-0.43,-0.61,0.15,0.28,0.98,1000
16:16:30.934,15.76,-8.14,-236.98,-0.37,-0.18,-0.67,0.14,0.27,0.98,1000
16:16:30.936,15.76,-8.15,-236.98,0.06,-0.49,-0.37,0.15,0.28,0.98,1000
16:16:30.938,15.76,-8.15,-236.98,-0.12,-0.37,-0.43,0.15,0.28,0.98,1000
16:16:30.940,15.76,-8.15,-236.98,-0.37,-0.24,-0.37,0.15,0.28,0.98,1000
16:16:30.942,15.76,-8.15,-236.98,-0.06,-0.37,-0.43,0.15,0.28,0.98,1000
16:16:30.944,15.76,-8.15,-236.98,-0.37,-0.3,-0.49,0.14,0.27,0.98,1000
16:16:30.946,15.76,-8.15,-236.98,-0.06,-0.37,-0.79,0.15,0.28,0.97,1000
16:16:30.948,15.76,-8.15,-236.98,-0.06,-0.43,-0.55,0.15,0.28,0.98,1000
16:16:30.950,15.76,-8.15,-236.98,-0.3,-0.12,-0.49,0.15,0.28,0.98,1000
16:16:30.952,15.76,-8.15,-236.98,-0.06,-0.37,-0.49,0.15,0.28,0.98,1000
16:16:30.954,15.76,-8.15,-236.98,-0.06,-0.24,-0.55,0.15,0.28,0.98,1000
16:16:30.956,15.76,-8.15,-236.99,-0.18,-0.06,-0.37,0.14,0.28,0.98,1000
16:16:30.958,15.76,-8.15,-236.99,0.0,-0.24,-0.37,0.15,0.28,0.98,1000
16:16:30.960,15.76,-8.15,-236.99,-0.24,-0.18,-0.55,0.15,0.28,0.98,1000
16:16:30.962,15.76,-8.15,-236.99,-0.18,-0.49,-0.55,0.15,0.28,0.98,1000
16:16:30.964,15.76,-8.15,-236.99,-0.12,-0.24,-0.55,0.15,0.28,0.98,1000
16:16:30.966,15.76,-8.15,-236.99,-0.3,-0.3,-0.43,0.14,0.28,0.98,1000
16:16:30.968,15.76,-8.15,-236.99,-0.18,-0.37,-0.49,0.15,0.28,0.98,1000
16:16:30.970,15.76,-8.15,-236.99,-0.24,-0.3,-0.49,0.15,0.28,0.98,1000
16:16:30.972,15.76,-8.15,-236.99,-0.24,-0.3,-0.37,0.15,0.28,0.98,1000
16:16:30.974,15.76,-8.15,-236.99,-0.06,-0.24,-0.43,0.14,0.28,0.98,1000
16:16:30.976,15.76,-8.15,-236.99,-0.18,-0.3,-0.61,0.14,0.28,0.97,1000
16:16:30.978,15.76,-8.15,-236.99,-0.37,-0.37,-0.55,0.14,0.28,0.98,1000
16:16:30.980,15.76,-8.15,-236.99,-0.37,-0.3,-0.43,0.14,0.28,0.98,1000
16:16:30.982,15.76,-8.15,-236.99,-0.06,-0.37,-0.49,0.14,0.28,0.98,1000
16:16:30.984,15.76,-8.15,-237.0,-0.06,-0.37,-0.49,0.14,0.28,0.98,1000
16:16:30.986,15.76,-8.15,-237.0,-0.3,-0.24,-0.43,0.14,0.28,0.98,1000
16:16:30.988,15.76,-8.15,-237.0,-0.12,-0.18,-0.67,0.14,0.28,0.98,1000
16:16:30.991,15.76,-8.15,-237.0,-0.3,-0.18,-0.43,0.14,0.28,0.98,1000
16:16:30.992,15.76,-8.15,-237.0,-0.24,-0.3,-0.37,0.14,0.28,0.98,1000
16:16:30.995,15.76,-8.15,-237.0,-0.3,-0.37,-0.37,0.14,0.28,0.98,1000
16:16:30.996,15.76,-8.15,-237.0,-0.37,-0.37,-0.43,0.14,0.28,0.98,1000
16:16:31.000,15.76,-8.15,-237.0,-0.43,-0.43,-0.49,0.14,0.28,0.98,1000
16:16:31.000,15.76,-8.15,-237.0,-0.43,-0.12,-0.37,0.14,0.28,0.98,1000
16:16:31.002,15.76,-8.15,-237.0,-0.3,-0.12,-0.37,0.14,0.28,0.98,1000
16:16:31.004,15.76,-8.15,-237.0,-0.18,-0.37,-0.37,0.14,0.28,0.98,1000
16:16:31.006,15.76,-8.15,-237.0,-0.37,-0.37,-0.43,0.14,0.28,0.98,1000
16:16:31.009,15.76,-8.15,-237.0,-0.37,-0.37,-0.37,0.14,0.28,0.98,1000
16:16:31.010,15.76,-8.15,-237.0,-0.18,-0.37,-0.43,0.14,0.28,0.98,1000
16:16:31.015,15.76,-8.15,-237.0,-0.37,-0.37,-0.55,0.14,0.28,0.98,1000
16:16:31.017,15.76,-8.15,-237.01,-0.24,-0.37,-0.55,0.14,0.28,0.98,1000
16:16:31.018,15.76,-8.15,-237.01,-0.18,-0.24,-0.3,0.15,0.28,0.98,1000
16:16:31.018,15.76,-8.15,-237.01,-0.12,-0.43,-0.37,0.14,0.28,0.98,1000
16:16:31.028,15.76,-8.15,-237.01,-0.18,-0.18,-0.3,0.14,0.28,0.98,1000
16:16:31.038,15.76,-8.15,-237.01,-0.3,-0.3,-0.43,0.15,0.28,0.98,1000
16:16:31.038,15.76,-8.15,-237.01,-0.37,-0.3,-0.55,0.14,0.28,0.98,1000
16:16:31.038,15.75,-8.15,-237.01,-0.18,-0.18,-0.61,0.15,0.28,0.98,1000
16:16:31.039,15.75,-8.15,-237.01,-0.24,-0.3,-0.61,0.15,0.28,0.98,1000
16:16:31.039,15.75,-8.15,-237.01,-0.37,-0.37,-0.49,0.15,0.28,0.98,1000
16:16:31.039,15.75,-8.15,-237.01,-0.24,-0.18,-0.3,0.14,0.28,0.98,1000
16:16:31.039,15.75,-8.15,-237.01,-0.12,-0.12,-0.43,0.15,0.28,0.98,1000
16:16:31.039,15.75,-8.15,-237.01,-0.18,-0.24,-0.55,0.15,0.28,0.98,1000
16:16:31.039,15.75,-8.15,-237.01,-0.3,-0.24,-0.43,0.14,0.28,0.98,1000
16:16:31.040,15.76,-8.15,-237.01,-0.24,-0.43,-0.24,0.15,0.28,0.98,1000
16:16:31.043,15.75,-8.15,-237.01,-0.3,-0.24,-0.43,0.15,0.28,0.98,1000
16:16:31.044,15.75,-8.15,-237.01,-0.12,-0.37,-0.37,0.15,0.28,0.98,1000
16:16:31.046,15.75,-8.15,-237.01,-0.12,-0.3,-0.49,0.15,0.28,0.98,1000
16:16:31.048,15.75,-8.15,-237.02,-0.24,-0.3,-0.43,0.14,0.28,0.98,1000
16:16:31.050,15.75,-8.15,-237.02,-0.18,-0.3,-0.49,0.14,0.28,0.98,1000
16:16:31.052,15.75,-8.15,-237.02,-0.06,-0.37,-0.37,0.14,0.28,0.98,1000
16:16:31.054,15.75,-8.15,-237.02,-0.18,-0.37,-0.43,0.14,0.28,0.98,1000
16:16:31.056,15.75,-8.15,-237.02,-0.3,-0.37,-0.55,0.14,0.28,0.98,1000
16:16:31.059,15.75,-8.15,-237.02,-0.24,-0.43,-0.67,0.15,0.28,0.98,1000
16:16:31.060,15.75,-8.15,-237.02,-0.12,-0.18,-0.55,0.15,0.28,0.98,1000
16:16:31.063,15.75,-8.15,-237.02,-0.18,-0.18,-0.55,0.14,0.28,0.98,1000
16:16:31.066,15.76,-8.15,-237.02,-0.18,-0.18,-0.43,0.14,0.28,0.98,1000
16:16:31.067,15.76,-8.15,-237.02,-0.18,-0.18,-0.43,0.14,0.28,0.98,1000
16:16:31.069,15.75,-8.15,-237.02,-0.37,-0.3,-0.43,0.14,0.28,0.98,1000
16:16:31.071,15.75,-8.15,-237.02,-0.12,-0.18,-0.49,0.15,0.28,0.98,1000
16:16:31.073,15.75,-8.15,-237.02,-0.37,-0.24,-0.55,0.14,0.28,0.98,1000
16:16:31.076,15.75,-8.15,-237.03,-0.18,-0.3,-0.3,0.15,0.28,0.98,1000
16:16:31.077,15.75,-8.15,-237.03,-0.12,-0.24,-0.55,0.15,0.28,0.98,1000
16:16:31.079,15.75,-8.15,-237.03,-0.24,-0.24,-0.49,0.14,0.28,0.98,1000
16:16:31.081,15.75,-8.15,-237.03,-0.18,-0.18,-0.43,0.14,0.28,0.98,1000
16:16:31.082,15.75,-8.15,-237.03,-0.18,-0.24,-0.55,0.14,0.28,0.98,1000
16:16:31.086,15.75,-8.15,-237.03,-0.24,-0.18,-0.43,0.14,0.28,0.98,1000
16:16:31.086,15.75,-8.15,-237.03,-0.24,-0.49,-0.43,0.15,0.28,0.98,1000
16:16:31.088,15.75,-8.15,-237.03,-0.18,-0.37,-0.49,0.14,0.28,0.98,1000
16:16:31.090,15.75,-8.15,-237.03,-0.37,-0.12,-0.37,0.15,0.28,0.98,1000
16:16:31.092,15.75,-8.15,-237.03,-0.18,-0.3,-0.43,0.14,0.28,0.98,1000
16:16:31.094,15.75,-8.15,-237.03,-0.24,-0.24,-0.3,0.15,0.28,0.98,1000
16:16:31.097,15.75,-8.15,-237.03,-0.06,-0.37,-0.12,0.15,0.28,0.98,1000
16:16:31.098,15.75,-8.15,-237.03,-0.24,-0.18,-0.37,0.14,0.28,0.98,1000
16:16:31.102,15.75,-8.15,-237.03,-0.18,-0.24,-0.43,0.14,0.28,0.98,1000
16:16:31.102,15.75,-8.15,-237.03,-0.24,-0.37,-0.37,0.15,0.28,0.98,1000
16:16:31.104,15.75,-8.15,-237.03,-0.3,-0.18,-0.43,0.15,0.28,0.98,1000
16:16:31.106,15.75,-8.15,-237.03,-0.37,-0.12,-0.43,0.15,0.28,0.98,1000
16:16:31.110,15.75,-8.15,-237.04,-0.12,-0.24,-0.55,0.14,0.28,0.98,1000
16:16:31.110,15.75,-8.15,-237.04,-0.18,-0.24,-0.18,0.14,0.28,0.98,1000
16:16:31.112,15.75,-8.15,-237.04,-0.12,-0.24,-0.37,0.14,0.28,0.98,1000
16:16:31.114,15.75,-8.15,-237.04,-0.18,-0.37,-0.37,0.15,0.28,0.98,1000
16:16:31.116,15.75,-8.15,-237.04,-0.12,-0.12,-0.43,0.15,0.28,0.98,1000
16:16:31.118,15.75,-8.15,-237.04,-0.24,-0.18,-0.3,0.14,0.28,0.98,1000
16:16:31.120,15.75,-8.15,-237.04,-0.18,-0.18,-0.49,0.14,0.28,0.98,1000
16:16:31.122,15.75,-8.15,-237.04,-0.18,-0.3,-0.37,0.14,0.28,0.98,1000
16:16:31.136,15.75,-8.15,-237.04,-0.12,-0.18,-0.43,0.14,0.28,0.98,1000
16:16:31.136,15.75,-8.15,-237.04,-0.18,-0.37,-0.43,0.15,0.28,0.98,1000
16:16:31.136,15.75,-8.15,-237.04,-0.18,-0.24,-0.55,0.14,0.28,0.98,1000
16:16:31.136,15.75,-8.15,-237.04,-0.18,-0.3,-0.43,0.14,0.28,0.98,1000
16:16:31.136,15.75,-8.15,-237.04,-0.24,-0.37,-0.61,0.14,0.28,0.98,1000
16:16:31.136,15.75,-8.15,-237.04,-0.18,-0.37,-0.43,0.14,0.28,0.98,1000
16:16:31.136,15.75,-8.15,-237.04,-0.24,-0.37,-0.43,0.14,0.28,0.98,1000
16:16:31.139,15.75,-8.15,-237.04,-0.43,-0.24,-0.43,0.14,0.28,0.98,1000
16:16:31.140,15.75,-8.15,-237.05,-0.24,-0.37,-0.49,0.14,0.28,0.98,1000
16:16:31.142,15.75,-8.15,-237.05,-0.3,-0.37,-0.24,0.15,0.28,0.98,1000
16:16:31.145,15.75,-8.15,-237.05,-0.24,-0.43,-0.12,0.15,0.28,0.98,1000
16:16:31.146,15.75,-8.15,-237.05,-0.24,-0.3,-0.37,0.14,0.28,0.98,1000
16:16:31.149,15.75,-8.15,-237.05,-0.24,-0.37,-0.43,0.14,0.28,0.98,1000
16:16:31.150,15.75,-8.15,-237.05,-0.3,-0.18,-0.43,0.15,0.28,0.98,1000
16:16:31.152,15.75,-8.15,-237.05,-0.12,-0.37,-0.49,0.14,0.28,0.98,1000
16:16:31.154,15.75,-8.15,-237.05,-0.3,-0.3,-0.43,0.14,0.28,0.98,1000
16:16:31.156,15.75,-8.15,-237.05,-0.3,-0.49,-0.3,0.15,0.28,0.98,1000
16:16:31.158,15.75,-8.15,-237.05,-0.24,-0.43,-0.43,0.14,0.28,0.98,1000
16:16:31.160,15.75,-8.15,-237.05,-0.3,-0.37,-0.3,0.14,0.28,0.98,1000
16:16:31.163,15.75,-8.15,-237.05,-0.24,-0.24,-0.43,0.15,0.28,0.98,1000
16:16:31.164,15.75,-8.15,-237.05,-0.37,-0.37,-0.37,0.15,0.28,0.98,1000
16:16:31.166,15.75,-8.15,-237.05,-0.43,-0.37,-0.49,0.14,0.28,0.98,1000
16:16:31.168,15.75,-8.15,-237.05,-0.37,-0.24,-0.43,0.15,0.28,0.98,1000
16:16:31.170,15.75,-8.15,-237.05,-0.37,-0.18,-0.37,0.15,0.28,0.98,1000
16:16:31.172,15.75,-8.15,-237.05,-0.37,-0.06,-0.3,0.15,0.28,0.98,1000
16:16:31.174,15.75,-8.15,-237.05,-0.06,-0.18,-0.3,0.15,0.28,0.98,1000
16:16:31.176,15.75,-8.15,-237.05,-0.18,-0.37,-0.49,0.15,0.28,0.98,1000
16:16:31.178,15.75,-8.15,-237.06,-0.18,-0.24,-0.3,0.15,0.28,0.98,1000
16:16:31.180,15.75,-8.15,-237.06,-0.18,-0.3,-0.49,0.15,0.28,0.98,1000
16:16:31.182,15.75,-8.15,-237.06,-0.18,-0.24,-0.43,0.14,0.28,0.98,1000
16:16:31.184,15.75,-8.15,-237.06,-0.18,-0.06,-0.43,0.15,0.28,0.98,1000
16:16:31.186,15.75,-8.15,-237.06,-0.3,-0.12,-0.43,0.15,0.28,0.98,1000
16:16:31.189,15.75,-8.15,-237.06,-0.18,-0.18,-0.43,0.14,0.28,0.98,1000
16:16:31.190,15.75,-8.15,-237.06,-0.18,-0.18,-0.49,0.14,0.28,0.98,1000
16:16:31.192,15.75,-8.15,-237.06,-0.24,-0.3,-0.43,0.15,0.28,0.98,1000
16:16:31.194,15.75,-8.15,-237.06,-0.18,-0.3,-0.37,0.14,0.28,0.98,1000
16:16:31.196,15.75,-8.15,-237.06,-0.24,-0.3,-0.37,0.14,0.28,0.98,1000
16:16:31.200,15.75,-8.15,-237.06,-0.06,-0.06,-0.37,0.14,0.28,0.98,1000
16:16:31.200,15.75,-8.15,-237.06,-0.06,-0.18,-0.43,0.14,0.28,0.98,1000
16:16:31.204,15.75,-8.15,-237.06,-0.06,-0.24,-0.49,0.14,0.28,0.98,1000
16:16:31.204,15.75,-8.15,-237.06,-0.06,-0.18,-0.49,0.14,0.28,0.98,1000
16:16:31.206,15.75,-8.15,-237.06,-0.12,-0.12,-0.49,0.14,0.28,0.98,1000
16:16:31.208,15.75,-8.15,-237.06,-0.12,-0.3,-0.37,0.14,0.28,0.98,1000
16:16:31.210,15.75,-8.15,-237.06,-0.12,-0.18,-0.37,0.14,0.28,0.98,1000
16:16:31.212,15.75,-8.15,-237.07,-0.24,-0.24,-0.43,0.15,0.28,0.98,1000
16:16:31.215,15.75,-8.15,-237.07,-0.3,-0.37,-0.55,0.14,0.28,0.98,1000
16:16:31.216,15.75,-8.15,-237.07,-0.24,-0.3,-0.43,0.14,0.28,0.98,1000
16:16:31.218,15.75,-8.15,-237.07,-0.24,-0.3,-0.55,0.14,0.28,0.98,1000
16:16:31.220,15.75,-8.15,-237.07,-0.3,-0.3,-0.43,0.14,0.28,0.98,1000
16:16:31.222,15.75,-8.15,-237.07,-0.3,-0.37,-0.37,0.14,0.28,0.98,1000
16:16:31.224,15.75,-8.15,-237.07,-0.18,-0.3,-0.49,0.14,0.28,0.98,1000
16:16:31.231,15.75,-8.15,-237.07,-0.24,-0.24,-0.49,0.14,0.28,0.98,1000
16:16:31.232,15.75,-8.15,-237.07,-0.37,-0.24,-0.61,0.15,0.28,0.98,1000
16:16:31.232,15.75,-8.15,-237.07,-0.18,-0.37,-0.49,0.14,0.28,0.98,1000
16:16:31.232,15.75,-8.15,-237.07,-0.18,-0.43,-0.37,0.14,0.28,0.98,1000
16:16:31.243,15.75,-8.15,-237.07,-0.24,-0.3,-0.49,0.14,0.28,0.98,1000
16:16:31.244,15.75,-8.15,-237.07,-0.24,-0.37,-0.37,0.14,0.28,0.98,1000
16:16:31.244,15.75,-8.15,-237.07,-0.37,-0.24,-0.43,0.14,0.28,0.98,1000
16:16:31.244,15.75,-8.15,-237.07,-0.3,-0.24,-0.37,0.14,0.28,0.98,1000
16:16:31.244,15.75,-8.14,-237.08,-0.37,-0.37,-0.43,0.15,0.28,0.98,1000
16:16:31.245,15.75,-8.14,-237.08,-0.24,-0.24,-0.43,0.15,0.28,0.98,1000
16:16:31.246,15.75,-8.14,-237.08,-0.37,-0.37,-0.67,0.15,0.28,0.98,1000
16:16:31.248,15.75,-8.14,-237.08,-0.12,-0.3,-0.55,0.15,0.28,0.98,1000
16:16:31.250,15.75,-8.14,-237.08,-0.18,-0.37,-0.37,0.14,0.28,0.98,1000
16:16:31.253,15.75,-8.14,-237.08,-0.18,-0.24,-0.43,0.14,0.28,0.98,1000
16:16:31.254,15.75,-8.14,-237.08,-0.24,-0.3,-0.3,0.14,0.28,0.98,1000
16:16:31.257,15.75,-8.14,-237.08,-0.3,-0.43,-0.55,0.14,0.28,0.98,1000
16:16:31.258,15.75,-8.14,-237.08,-0.24,-0.3,-0.37,0.14,0.28,0.98,1000
16:16:31.260,15.75,-8.15,-237.08,-0.24,-0.37,-0.49,0.15,0.28,0.98,1000
16:16:31.262,15.75,-8.15,-237.08,-0.18,-0.24,-0.49,0.14,0.28,0.98,1000
16:16:31.264,15.75,-8.15,-237.08,-0.18,-0.24,-0.43,0.14,0.28,0.98,1000
16:16:31.266,15.76,-8.15,-237.08,-0.12,-0.18,-0.49,0.14,0.28,0.98,1000
16:16:31.268,15.76,-8.14,-237.08,-0.12,-0.06,-0.37,0.15,0.28,0.98,1000
16:16:31.270,15.76,-8.14,-237.08,-0.3,-0.37,-0.37,0.14,0.28,0.98,1000
16:16:31.272,15.76,-8.14,-237.08,-0.06,-0.12,-0.49,0.14,0.28,0.98,1000
16:16:31.274,15.76,-8.14,-237.09,-0.18,-0.37,-0.55,0.14,0.28,0.98,1000
16:16:31.276,15.76,-8.14,-237.09,-0.3,-0.24,-0.43,0.14,0.28,0.98,1000
16:16:31.278,15.76,-8.14,-237.09,-0.18,-0.06,-0.37,0.14,0.28,0.98,1000
16:16:31.280,15.76,-8.14,-237.09,-0.18,-0.18,-0.49,0.14,0.28,0.98,1000
16:16:31.282,15.76,-8.14,-237.09,-0.18,-0.12,-0.43,0.14,0.28,0.98,1000
16:16:31.284,15.76,-8.14,-237.09,-0.18,-0.12,-0.43,0.15,0.28,0.98,1000
16:16:31.287,15.76,-8.14,-237.09,-0.24,-0.3,-0.55,0.14,0.28,0.98,1000
16:16:31.288,15.76,-8.14,-237.09,-0.24,-0.3,-0.37,0.14,0.28,0.98,1000
16:16:31.291,15.76,-8.14,-237.09,-0.3,-0.24,-0.37,0.15,0.28,0.98,1000
16:16:31.292,15.76,-8.14,-237.09,-0.37,-0.24,-0.43,0.14,0.28,0.98,1000
16:16:31.294,15.76,-8.14,-237.09,-0.24,-0.24,-0.37,0.14,0.28,0.98,1000
16:16:31.296,15.76,-8.14,-237.09,-0.24,-0.18,-0.49,0.14,0.28,0.98,1000
16:16:31.298,15.76,-8.14,-237.09,-0.24,-0.24,-0.49,0.15,0.28,0.98,1000
16:16:31.302,15.76,-8.14,-237.09,-0.18,-0.3,-0.37,0.15,0.28,0.98,1000
16:16:31.303,15.76,-8.14,-237.09,-0.18,-0.24,-0.43,0.14,0.28,0.98,1000
16:16:31.306,15.76,-8.14,-237.1,-0.24,-0.37,-0.37,0.14,0.28,0.98,1000
16:16:31.307,15.76,-8.14,-237.1,-0.24,-0.37,-0.55,0.14,0.28,0.98,1000
16:16:31.308,15.76,-8.14,-237.1,-0.18,-0.3,-0.43,0.14,0.28,0.98,1000
16:16:31.310,15.76,-8.14,-237.1,-0.3,-0.18,-0.37,0.15,0.28,0.98,1000
16:16:31.312,15.76,-8.14,-237.1,-0.3,-0.3,-0.37,0.15,0.28,0.98,1000
16:16:31.314,15.76,-8.14,-237.1,-0.24,-0.37,-0.37,0.15,0.28,0.98,1000
16:16:31.318,15.76,-8.15,-237.1,-0.24,-0.24,-0.49,0.15,0.28,0.98,1000
16:16:31.319,15.76,-8.15,-237.1,-0.24,-0.37,-0.49,0.14,0.28,0.98,1000
16:16:31.321,15.76,-8.15,-237.1,-0.18,-0.37,-0.37,0.14,0.28,0.98,1000
16:16:31.322,15.76,-8.15,-237.1,-0.3,-0.24,-0.55,0.14,0.28,0.98,1000
16:16:31.325,15.76,-8.15,-237.1,-0.24,-0.37,-0.43,0.14,0.28,0.98,1000
16:16:31.326,15.76,-8.15,-237.1,-0.24,-0.24,-0.37,0.14,0.28,0.98,1000
16:16:31.333,15.76,-8.15,-237.1,-0.12,-0.3,-0.24,0.14,0.28,0.98,1000
16:16:31.334,15.76,-8.15,-237.1,-0.18,-0.3,-0.37,0.14,0.28,0.98,1000
16:16:31.334,15.76,-8.15,-237.1,-0.24,-0.24,-0.49,0.15,0.28,0.98,1000
16:16:31.334,15.76,-8.15,-237.1,-0.18,-0.3,-0.55,0.14,0.28,0.98,1000
16:16:31.344,15.76,-8.15,-237.11,-0.24,-0.3,-0.49,0.14,0.28,0.98,1000
16:16:31.344,15.76,-8.15,-237.11,-0.18,-0.37,-0.49,0.15,0.28,0.98,1000
16:16:31.344,15.76,-8.15,-237.11,-0.24,-0.3,-0.3,0.14,0.28,0.98,1000
16:16:31.344,15.76,-8.15,-237.11,-0.18,-0.18,-0.43,0.15,0.28,0.98,1000
16:16:31.344,15.76,-8.15,-237.11,-0.18,-0.18,-0.37,0.14,0.28,0.98,1000
16:16:31.346,15.76,-8.15,-237.11,-0.24,-0.12,-0.55,0.14,0.28,0.98,1000
16:16:31.351,15.76,-8.15,-237.11,-0.06,-0.18,-0.49,0.14,0.28,0.98,1000
16:16:31.351,15.76,-8.15,-237.11,-0.24,-0.37,-0.37,0.14,0.28,0.98,1000
16:16:31.352,15.76,-8.15,-237.11,-0.3,-0.37,-0.37,0.14,0.28,0.98,1000
16:16:31.354,15.76,-8.15,-237.11,-0.24,-0.37,-0.37,0.15,0.28,0.98,1000
16:16:31.356,15.76,-8.15,-237.11,-0.43,-0.43,-0.37,0.14,0.28,0.98,1000
16:16:31.358,15.76,-8.15,-237.11,-0.18,-0.37,-0.37,0.14,0.28,0.98,1000
16:16:31.360,15.76,-8.15,-237.11,-0.3,-0.3,-0.37,0.15,0.28,0.98,1000
16:16:31.362,15.76,-8.15,-237.11,-0.3,-0.12,-0.37,0.15,0.28,0.98,1000
16:16:31.364,15.76,-8.15,-237.11,-0.3,-0.37,-0.61,0.14,0.28,0.98,1000
16:16:31.366,15.76,-8.15,-237.11,-0.3,-0.3,-0.55,0.14,0.28,0.98,1000
16:16:31.368,15.76,-8.15,-237.11,-0.18,-0.37,-0.37,0.15,0.28,0.98,1000
16:16:31.370,15.76,-8.15,-237.12,-0.24,-0.37,-0.49,0.15,0.28,0.98,1000
16:16:31.372,15.76,-8.15,-237.12,-0.18,-0.18,-0.55,0.14,0.28,0.98,1000
16:16:31.374,15.76,-8.15,-237.12,-0.18,-0.3,-0.61,0.15,0.28,0.98,1000
16:16:31.376,15.76,-8.15,-237.12,-0.24,-0.37,-0.3,0.15,0.28,0.98,1000
16:16:31.378,15.76,-8.15,-237.12,-0.18,-0.37,-0.43,0.15,0.28,0.98,1000
16:16:31.380,15.76,-8.15,-237.12,-0.18,-0.37,-0.49,0.14,0.28,0.98,1000
16:16:31.382,15.76,-8.15,-237.12,-0.24,-0.3,-0.37,0.15,0.28,0.98,1000
16:16:31.384,15.76,-8.15,-237.12,-0.24,-0.37,-0.43,0.15,0.28,0.98,1000
16:16:31.386,15.76,-8.15,-237.12,-0.37,-0.3,-0.3,0.15,0.28,0.98,1000
16:16:31.388,15.76,-8.15,-237.12,-0.18,-0.24,-0.37,0.15,0.28,0.98,1000
16:16:31.390,15.76,-8.15,-237.12,-0.24,-0.37,-0.49,0.14,0.28,0.98,1000
16:16:31.394,15.76,-8.15,-237.12,-0.24,-0.43,-0.49,0.15,0.28,0.98,1000
16:16:31.394,15.76,-8.15,-237.12,-0.24,-0.3,-0.49,0.14,0.28,0.98,1000
16:16:31.396,15.76,-8.15,-237.12,-0.18,-0.24,-0.43,0.15,0.28,0.98,1000
16:16:31.398,15.76,-8.15,-237.12,-0.37,-0.37,-0.37,0.15,0.28,0.98,1000
16:16:31.400,15.76,-8.15,-237.12,-0.18,-0.3,-0.37,0.15,0.28,0.98,1000
16:16:31.404,15.76,-8.15,-237.13,-0.24,-0.24,-0.43,0.15,0.28,0.98,1000
16:16:31.405,15.76,-8.15,-237.13,-0.12,-0.37,-0.43,0.15,0.28,0.98,1000
16:16:31.408,15.76,-8.15,-237.13,-0.18,-0.24,-0.37,0.15,0.28,0.98,1000
16:16:31.409,15.76,-8.15,-237.13,-0.12,-0.18,-0.3,0.15,0.28,0.98,1000
16:16:31.410,15.76,-8.15,-237.13,-0.24,-0.3,-0.37,0.14,0.28,0.98,1000
16:16:31.412,15.76,-8.15,-237.13,-0.18,-0.18,-0.37,0.14,0.28,0.98,1000
16:16:31.414,15.76,-8.15,-237.13,-0.24,-0.3,-0.43,0.14,0.28,0.98,1000
16:16:31.416,15.76,-8.15,-237.13,-0.18,-0.18,-0.43,0.14,0.28,0.98,1000
16:16:31.419,15.76,-8.15,-237.13,-0.12,-0.37,-0.55,0.14,0.28,0.98,1000
16:16:31.421,15.76,-8.15,-237.13,-0.24,-0.37,-0.43,0.14,0.28,0.98,1000
16:16:31.425,15.76,-8.15,-237.13,-0.12,-0.3,-0.37,0.14,0.28,0.98,1000
16:16:31.427,15.76,-8.15,-237.13,-0.12,-0.18,-0.37,0.14,0.28,0.98,1000
16:16:31.428,15.76,-8.15,-237.13,-0.24,-0.3,-0.37,0.14,0.28,0.98,1000
16:16:31.429,15.76,-8.15,-237.13,-0.12,-0.37,-0.37,0.15,0.28,0.98,1000
16:16:31.438,15.76,-8.15,-237.13,-0.3,-0.37,-0.43,0.14,0.28,0.98,1000
16:16:31.444,15.76,-8.15,-237.14,-0.24,-0.37,-0.49,0.14,0.28,0.98,1000
16:16:31.445,15.76,-8.15,-237.14,-0.18,-0.37,-0.3,0.14,0.28,0.98,1000
16:16:31.445,15.76,-8.15,-237.14,-0.18,-0.24,-0.37,0.14,0.28,0.98,1000
16:16:31.445,15.76,-8.15,-237.14,-0.18,-0.37,-0.37,0.14,0.28,0.98,1000
16:16:31.445,15.76,-8.15,-237.14,-0.12,-0.24,-0.49,0.14,0.28,0.98,1000
16:16:31.445,15.76,-8.15,-237.14,-0.3,-0.3,-0.43,0.14,0.28,0.98,1000
16:16:31.445,15.76,-8.15,-237.14,-0.3,-0.3,-0.43,0.14,0.28,0.98,1000
16:16:31.447,15.76,-8.15,-237.14,-0.24,-0.3,-0.37,0.15,0.28,0.98,1000
16:16:31.448,15.76,-8.15,-237.14,-0.37,-0.37,-0.37,0.15,0.28,0.98,1000
16:16:31.450,15.76,-8.15,-237.14,-0.24,-0.3,-0.49,0.14,0.28,0.98,1000
16:16:31.452,15.76,-8.15,-237.14,-0.18,-0.37,-0.43,0.15,0.28,0.98,1000
16:16:31.454,15.76,-8.15,-237.14,-0.18,-0.37,-0.43,0.14,0.28,0.98,1000
16:16:31.456,15.76,-8.15,-237.14,-0.18,-0.3,-0.55,0.14,0.28,0.98,1000
16:16:31.459,15.77,-8.15,-237.14,-0.24,-0.24,-0.61,0.14,0.28,0.98,1000
16:16:31.468,15.77,-8.15,-237.14,-0.3,-0.3,-0.49,0.14,0.28,0.98,1000
16:16:31.468,15.77,-8.15,-237.15,-0.24,-0.37,-0.43,0.14,0.28,0.98,1000
16:16:31.468,15.77,-8.15,-237.15,-0.24,-0.3,-0.49,0.14,0.28,0.98,1000
16:16:31.469,15.77,-8.15,-237.15,-0.18,-0.12,-0.37,0.15,0.28,0.98,1000
16:16:31.469,15.77,-8.15,-237.15,-0.18,-0.37,-0.43,0.14,0.28,0.98,1000
16:16:31.471,15.77,-8.15,-237.15,-0.12,-0.37,-0.37,0.15,0.28,0.98,1000
16:16:31.472,15.77,-8.15,-237.15,-0.18,-0.24,-0.55,0.15,0.28,0.98,1000
16:16:31.477,15.77,-8.15,-237.15,-0.18,-0.3,-0.43,0.15,0.28,0.98,1000
16:16:31.479,15.77,-8.15,-237.15,-0.18,-0.37,-0.55,0.15,0.28,0.98,1000
16:16:31.479,15.77,-8.15,-237.15,-0.3,-0.3,-0.49,0.15,0.28,0.98,1000
16:16:31.480,15.77,-8.15,-237.15,-0.37,-0.24,-0.37,0.14,0.28,0.98,1000
16:16:31.482,15.77,-8.15,-237.15,-0.12,-0.24,-0.37,0.15,0.28,0.98,1000
16:16:31.484,15.77,-8.15,-237.15,-0.24,-0.18,-0.43,0.15,0.28,0.98,1000
16:16:31.486,15.77,-8.15,-237.15,-0.18,-0.37,-0.37,0.15,0.28,0.98,1000
16:16:31.488,15.77,-8.15,-237.15,-0.18,-0.18,-0.49,0.15,0.28,0.98,1000
16:16:31.490,15.77,-8.15,-237.15,-0.3,-0.12,-0.49,0.15,0.28,0.98,1000
16:16:31.492,15.77,-8.15,-237.16,-0.37,-0.24,-0.37,0.15,0.28,0.98,1000
16:16:31.494,15.77,-8.15,-237.16,-0.24,-0.24,-0.37,0.15,0.28,0.98,1000
16:16:31.496,15.77,-8.15,-237.16,-0.24,-0.37,-0.49,0.15,0.28,0.98,1000
16:16:31.498,15.77,-8.15,-237.16,-0.3,-0.3,-0.55,0.15,0.28,0.98,1000
16:16:31.500,15.77,-8.15,-237.16,-0.18,-0.18,-0.49,0.15,0.28,0.98,1000
16:16:31.502,15.77,-8.15,-237.16,-0.18,-0.18,-0.49,0.15,0.28,0.98,1000
16:16:31.504,15.77,-8.15,-237.16,-0.18,-0.37,-0.37,0.15,0.28,0.98,1000
16:16:31.507,15.77,-8.15,-237.16,-0.3,-0.37,-0.37,0.14,0.28,0.98,1000
16:16:31.508,15.77,-8.15,-237.16,-0.18,-0.3,-0.55,0.15,0.28,0.98,1000
16:16:31.511,15.77,-8.15,-237.16,-0.18,-0.24,-0.43,0.15,0.28,0.98,1000
16:16:31.512,15.76,-8.15,-237.16,-0.18,-0.18,-0.43,0.15,0.28,0.98,1000
16:16:31.514,15.76,-8.15,-237.16,-0.24,-0.37,-0.49,0.15,0.28,0.98,1000
16:16:31.516,15.76,-8.15,-237.16,-0.18,-0.3,-0.37,0.15,0.28,0.98,1000
16:16:31.518,15.76,-8.15,-237.16,-0.24,-0.3,-0.37,0.15,0.28,0.98,1000
16:16:31.520,15.76,-8.15,-237.16,-0.18,-0.24,-0.37,0.15,0.28,0.98,1000
16:16:31.524,15.76,-8.15,-237.17,-0.24,-0.37,-0.43,0.15,0.28,0.98,1000
16:16:31.524,15.76,-8.15,-237.17,-0.37,-0.24,-0.43,0.15,0.28,0.98,1000
16:16:31.527,15.76,-8.15,-237.17,-0.24,-0.24,-0.43,0.14,0.28,0.98,1000
16:16:31.528,15.76,-8.15,-237.17,-0.37,-0.43,-0.43,0.14,0.28,0.98,1000
16:16:31.530,15.76,-8.15,-237.17,-0.18,-0.37,-0.49,0.14,0.28,0.98,1000
16:16:31.532,15.76,-8.15,-237.17,-0.18,-0.18,-0.43,0.14,0.28,0.98,1000
16:16:31.538,15.76,-8.15,-237.17,-0.18,-0.3,-0.61,0.14,0.28,0.98,1000
16:16:31.540,15.76,-8.15,-237.17,-0.06,-0.37,-0.37,0.14,0.28,0.98,1000
16:16:31.540,15.76,-8.15,-237.17,-0.18,-0.3,-0.37,0.14,0.28,0.98,1000
16:16:31.540,15.76,-8.15,-237.17,-0.24,-0.24,-0.49,0.14,0.28,0.98,1000
16:16:31.546,15.76,-8.15,-237.17,-0.18,-0.24,-0.49,0.14,0.28,0.98,1000
16:16:31.546,15.76,-8.15,-237.17,-0.12,-0.18,-0.49,0.14,0.28,0.98,1000
16:16:31.546,15.76,-8.15,-237.17,-0.18,-0.3,-0.37,0.14,0.28,0.98,1000
16:16:31.549,15.76,-8.15,-237.17,-0.24,-0.18,-0.37,0.14,0.28,0.98,1000
16:16:31.550,15.76,-8.15,-237.17,-0.18,-0.18,-0.3,0.15,0.28,0.98,1000
16:16:31.552,15.76,-8.15,-237.17,-0.18,-0.18,-0.49,0.14,0.28,0.98,1000
16:16:31.554,15.77,-8.15,-237.17,-0.24,-0.37,-0.43,0.14,0.28,0.98,1000
16:16:31.556,15.76,-8.15,-237.18,-0.12,-0.37,-0.37,0.14,0.28,0.98,1000
16:16:31.558,15.76,-8.15,-237.18,-0.24,-0.3,-0.37,0.14,0.28,0.98,1000
16:16:31.560,15.76,-8.15,-237.18,-0.18,-0.18,-0.37,0.14,0.28,0.98,1000
16:16:31.562,15.76,-8.15,-237.18,-0.18,-0.37,-0.43,0.15,0.28,0.98,1000
16:16:31.564,15.76,-8.15,-237.18,-0.37,-0.37,-0.37,0.14,0.28,0.98,1000
16:16:31.566,15.76,-8.15,-237.18,-0.18,-0.24,-0.43,0.14,0.28,0.98,1000
16:16:31.568,15.76,-8.15,-237.18,-0.3,-0.24,-0.43,0.14,0.28,0.98,1000
16:16:31.570,15.76,-8.15,-237.18,-0.18,-0.37,-0.3,0.14,0.28,0.98,1000
16:16:31.572,15.76,-8.15,-237.18,-0.24,-0.18,-0.43,0.15,0.28,0.98,1000
16:16:31.574,15.76,-8.15,-237.18,-0.3,-0.24,-0.49,0.14,0.28,0.98,1000
16:16:31.576,15.76,-8.15,-237.18,-0.3,-0.18,-0.43,0.14,0.28,0.98,1000
16:16:31.578,15.76,-8.15,-237.18,-0.3,-0.3,-0.43,0.14,0.28,0.98,1000
16:16:31.580,15.76,-8.15,-237.18,-0.18,-0.3,-0.43,0.15,0.28,0.98,1000
16:16:31.582,15.76,-8.15,-237.18,-0.37,-0.37,-0.3,0.14,0.28,0.98,1000
16:16:31.584,15.76,-8.15,-237.18,-0.18,-0.3,-0.37,0.15,0.28,0.98,1000
16:16:31.586,15.76,-8.15,-237.18,-0.3,-0.37,-0.37,0.15,0.28,0.98,1000
16:16:31.588,15.76,-8.15,-237.18,-0.3,-0.37,-0.37,0.14,0.28,0.98,1000
16:16:31.591,15.76,-8.15,-237.19,-0.3,-0.3,-0.43,0.14,0.28,0.98,1000
16:16:31.593,15.76,-8.15,-237.19,-0.18,-0.3,-0.67,0.14,0.28,0.98,1000
16:16:31.594,15.76,-8.15,-237.19,-0.18,-0.24,-0.43,0.15,0.28,0.98,1000
16:16:31.596,15.76,-8.15,-237.19,-0.18,-0.37,-0.55,0.14,0.28,0.98,1000
16:16:31.598,15.76,-8.15,-237.19,-0.06,-0.37,-0.37,0.15,0.28,0.98,1000
16:16:31.602,15.76,-8.15,-237.19,-0.12,-0.37,-0.37,0.15,0.28,0.98,1000
16:16:31.603,15.76,-8.15,-237.19,-0.18,-0.24,-0.55,0.15,0.28,0.98,1000
16:16:31.604,15.76,-8.15,-237.19,-0.24,-0.37,-0.49,0.15,0.28,0.98,1000
16:16:31.610,15.76,-8.15,-237.19,-0.18,-0.3,-0.37,0.15,0.28,0.98,1000
16:16:31.611,15.76,-8.15,-237.19,-0.06,-0.18,-0.24,0.15,0.28,0.98,1000
16:16:31.611,15.76,-8.15,-237.19,-0.18,-0.12,-0.43,0.14,0.28,0.98,1000
16:16:31.615,15.76,-8.15,-237.19,-0.24,-0.43,-0.37,0.14,0.28,0.98,1000
16:16:31.615,15.76,-8.15,-237.2,-0.18,-0.37,-0.37,0.15,0.28,0.98,1000
16:16:31.616,15.76,-8.15,-237.2,-0.12,-0.24,-0.49,0.15,0.28,0.98,1000
16:16:31.619,15.76,-8.15,-237.2,-0.18,-0.12,-0.43,0.14,0.28,0.98,1000
16:16:31.624,15.76,-8.15,-237.2,-0.12,-0.18,-0.61,0.14,0.28,0.98,1000
16:16:31.624,15.76,-8.15,-237.2,-0.12,-0.37,-0.55,0.14,0.28,0.98,1000
16:16:31.624,15.76,-8.15,-237.2,-0.24,-0.24,-0.49,0.15,0.28,0.98,1000
16:16:31.626,15.76,-8.15,-237.2,-0.18,-0.43,-0.3,0.14,0.28,0.98,1000
16:16:31.628,15.76,-8.15,-237.2,-0.12,-0.24,-0.18,0.14,0.28,0.98,1000
16:16:31.630,15.76,-8.15,-237.2,-0.24,-0.3,-0.55,0.14,0.28,0.98,1000
16:16:31.632,15.76,-8.15,-237.2,-0.37,-0.43,-0.49,0.14,0.28,0.98,1000
16:16:31.634,15.76,-8.15,-237.2,-0.18,-0.18,-0.49,0.14,0.28,0.98,1000
16:16:31.649,15.76,-8.15,-237.2,-0.37,-0.24,-0.43,0.14,0.28,0.98,1000
16:16:31.650,15.76,-8.15,-237.2,-0.18,-0.3,-0.55,0.14,0.28,0.98,1000
16:16:31.650,15.76,-8.15,-237.2,-0.18,-0.37,-0.37,0.14,0.28,0.98,1000
16:16:31.650,15.76,-8.15,-237.2,-0.24,-0.24,-0.49,0.14,0.28,0.98,1000
16:16:31.650,15.76,-8.15,-237.2,-0.3,-0.3,-0.67,0.14,0.28,0.98,1000
16:16:31.650,15.76,-8.15,-237.21,-0.24,-0.18,-0.43,0.14,0.28,0.98,1000
16:16:31.650,15.76,-8.15,-237.21,-0.12,-0.24,-0.49,0.14,0.28,0.98,1000
16:16:31.650,15.76,-8.15,-237.21,-0.3,-0.3,-0.43,0.15,0.28,0.98,1000
16:16:31.652,15.76,-8.15,-237.21,-0.37,-0.3,-0.55,0.14,0.28,0.98,1000
16:16:31.654,15.76,-8.15,-237.21,-0.49,-0.3,-0.49,0.15,0.28,0.98,1000
16:16:31.658,15.76,-8.15,-237.21,-0.18,-0.37,-0.55,0.14,0.28,0.98,1000
16:16:31.658,15.76,-8.15,-237.21,-0.37,-0.43,-0.49,0.14,0.28,0.98,1000
16:16:31.660,15.76,-8.15,-237.21,-0.3,-0.24,-0.55,0.14,0.28,0.98,1000
16:16:31.662,15.76,-8.15,-237.21,0.0,-0.43,-0.3,0.14,0.28,0.98,1000
16:16:31.664,15.76,-8.15,-237.21,-0.18,-0.37,-0.3,0.14,0.28,0.98,1000
16:16:31.666,15.76,-8.15,-237.21,-0.24,-0.18,-0.43,0.14,0.28,0.98,1000
16:16:31.668,15.76,-8.15,-237.21,-0.06,-0.3,-0.49,0.14,0.28,0.98,1000
16:16:31.670,15.76,-8.15,-237.21,-0.12,-0.24,-0.55,0.15,0.28,0.98,1000
16:16:31.672,15.76,-8.15,-237.21,-0.24,-0.37,-0.24,0.15,0.28,0.98,1000
16:16:31.674,15.76,-8.15,-237.21,-0.18,-0.37,-0.37,0.15,0.28,0.98,1000
16:16:31.676,15.76,-8.15,-237.21,-0.24,-0.37,-0.3,0.15,0.28,0.98,1000
16:16:31.678,15.76,-8.15,-237.21,-0.37,-0.24,-0.43,0.15,0.28,0.98,1000
16:16:31.680,15.76,-8.15,-237.22,-0.37,-0.18,-0.37,0.14,0.28,0.98,1000
16:16:31.683,15.76,-8.15,-237.22,-0.18,-0.18,-0.37,0.15,0.28,0.98,1000
16:16:31.684,15.76,-8.15,-237.22,-0.24,-0.18,-0.37,0.14,0.28,0.98,1000
16:16:31.687,15.76,-8.15,-237.22,-0.3,-0.12,-0.61,0.14,0.28,0.98,1000
16:16:31.688,15.76,-8.15,-237.22,-0.12,-0.18,-0.55,0.15,0.28,0.98,1000
16:16:31.690,15.76,-8.15,-237.22,-0.3,-0.37,-0.49,0.14,0.28,0.98,1000
16:16:31.692,15.76,-8.15,-237.22,-0.12,-0.37,-0.43,0.15,0.28,0.98,1000
16:16:31.694,15.76,-8.15,-237.22,-0.37,-0.37,-0.37,0.14,0.28,0.98,1000
16:16:31.697,15.76,-8.15,-237.22,-0.43,-0.18,-0.37,0.14,0.28,0.98,1000
16:16:31.698,15.76,-8.15,-237.22,-0.3,-0.12,-0.37,0.14,0.28,0.98,1000
16:16:31.700,15.76,-8.15,-237.22,-0.24,-0.24,-0.3,0.15,0.28,0.98,1000
16:16:31.702,15.76,-8.15,-237.22,-0.24,-0.43,-0.37,0.15,0.28,0.98,1000
16:16:31.704,15.76,-8.15,-237.22,-0.18,-0.43,-0.3,0.15,0.28,0.98,1000
16:16:31.706,15.76,-8.15,-237.22,-0.18,-0.3,-0.3,0.14,0.28,0.98,1000
16:16:31.708,15.76,-8.15,-237.22,-0.24,-0.18,-0.37,0.14,0.28,0.98,1000
16:16:31.712,15.76,-8.15,-237.22,-0.3,-0.37,-0.49,0.14,0.28,0.98,1000
16:16:31.712,15.76,-8.15,-237.22,-0.24,-0.18,-0.37,0.15,0.28,0.98,1000
16:16:31.715,15.76,-8.15,-237.23,-0.24,-0.18,-0.37,0.15,0.28,0.98,1000
16:16:31.717,15.76,-8.15,-237.23,-0.18,-0.24,-0.43,0.15,0.28,0.98,1000
16:16:31.718,15.76,-8.15,-237.23,-0.12,-0.3,-0.55,0.14,0.28,0.98,1000
16:16:31.720,15.76,-8.15,-237.23,-0.18,-0.3,-0.55,0.14,0.28,0.98,1000
16:16:31.722,15.76,-8.15,-237.23,-0.12,-0.37,-0.37,0.14,0.28,0.98,1000
16:16:31.724,15.76,-8.15,-237.23,-0.18,-0.3,-0.37,0.15,0.28,0.98,1000
16:16:31.727,15.76,-8.15,-237.23,-0.18,-0.37,-0.43,0.15,0.28,0.98,1000
16:16:31.728,15.76,-8.15,-237.23,-0.12,-0.24,-0.49,0.15,0.28,0.98,1000
16:16:31.730,15.76,-8.15,-237.23,-0.24,-0.37,-0.49,0.14,0.28,0.98,1000
16:16:31.732,15.76,-8.15,-237.23,-0.24,-0.24,-0.43,0.14,0.28,0.98,1000
16:16:31.734,15.76,-8.15,-237.23,-0.18,-0.24,-0.55,0.14,0.28,0.98,1000
16:16:31.750,15.76,-8.15,-237.23,-0.18,-0.24,-0.43,0.15,0.28,0.98,1000
16:16:31.751,15.76,-8.15,-237.23,-0.24,-0.18,-0.37,0.14,0.28,0.98,1000
16:16:31.751,15.76,-8.15,-237.23,-0.18,-0.3,-0.37,0.14,0.28,0.98,1000
16:16:31.751,15.76,-8.15,-237.23,-0.18,-0.24,-0.49,0.14,0.28,0.98,1000
16:16:31.751,15.76,-8.15,-237.23,-0.18,-0.37,-0.24,0.14,0.28,0.98,1000
16:16:31.751,15.76,-8.15,-237.23,-0.3,-0.18,-0.37,0.14,0.28,0.98,1000
16:16:31.751,15.76,-8.15,-237.24,-0.12,-0.12,-0.43,0.15,0.28,0.98,1000
16:16:31.751,15.76,-8.15,-237.24,-0.06,-0.37,-0.55,0.14,0.28,0.98,1000
16:16:31.752,15.76,-8.15,-237.24,-0.12,-0.3,-0.49,0.15,0.28,0.98,1000
16:16:31.755,15.76,-8.15,-237.24,-0.24,-0.3,-0.49,0.15,0.28,0.98,1000
16:16:31.756,15.76,-8.15,-237.24,-0.24,-0.37,-0.55,0.14,0.28,0.98,1000
16:16:31.759,15.76,-8.15,-237.24,-0.24,-0.24,-0.37,0.14,0.28,0.98,1000
16:16:31.760,15.76,-8.15,-237.24,-0.24,-0.24,-0.55,0.15,0.28,0.98,1000
16:16:31.762,15.76,-8.15,-237.24,-0.24,-0.24,-0.55,0.15,0.28,0.98,1000
16:16:31.764,15.76,-8.15,-237.24,-0.12,-0.24,-0.43,0.14,0.28,0.98,1000
16:16:31.766,15.76,-8.15,-237.24,-0.18,-0.24,-0.43,0.15,0.28,0.98,1000
16:16:31.768,15.76,-8.15,-237.24,-0.3,-0.3,-0.49,0.15,0.29,0.98,1000
16:16:31.770,15.76,-8.15,-237.24,-0.24,-0.37,-0.49,0.14,0.28,0.98,1000
16:16:31.772,15.76,-8.15,-237.24,-0.24,-0.37,-0.61,0.15,0.28,0.98,1000
16:16:31.774,15.76,-8.15,-237.24,-0.37,-0.3,-0.37,0.14,0.28,0.98,1000
16:16:31.776,15.76,-8.15,-237.25,-0.37,-0.3,-0.49,0.15,0.28,0.98,1000
16:16:31.778,15.76,-8.15,-237.25,-0.3,-0.3,-0.43,0.14,0.28,0.98,1000
16:16:31.780,15.76,-8.15,-237.25,-0.37,-0.18,-0.37,0.14,0.28,0.98,1000
16:16:31.782,15.76,-8.15,-237.25,-0.24,-0.24,-0.37,0.15,0.28,0.98,1000
16:16:31.786,15.76,-8.15,-237.25,-0.18,-0.37,-0.55,0.15,0.28,0.98,1000
16:16:31.787,15.76,-8.15,-237.25,-0.3,-0.49,-0.37,0.14,0.28,0.98,1000
16:16:31.788,15.76,-8.15,-237.25,-0.24,-0.37,-0.37,0.14,0.28,0.98,1000
16:16:31.790,15.76,-8.15,-237.25,-0.24,-0.37,-0.55,0.15,0.28,0.98,1000
16:16:31.792,15.76,-8.15,-237.25,-0.24,-0.3,-0.37,0.14,0.28,0.98,1000
16:16:31.794,15.76,-8.15,-237.25,-0.24,-0.24,-0.3,0.14,0.28,0.98,1000
16:16:31.796,15.76,-8.15,-237.25,-0.24,-0.37,-0.43,0.14,0.28,0.98,1000
16:16:31.798,15.76,-8.15,-237.25,-0.3,-0.18,-0.37,0.14,0.28,0.98,1000
16:16:31.800,15.76,-8.15,-237.25,-0.18,-0.18,-0.37,0.14,0.28,0.98,1000
16:16:31.803,15.76,-8.15,-237.25,-0.3,-0.43,-0.24,0.15,0.28,0.98,1000
16:16:31.804,15.76,-8.15,-237.25,-0.18,-0.3,-0.37,0.14,0.28,0.98,1000
16:16:31.806,15.76,-8.15,-237.25,-0.12,-0.24,-0.37,0.15,0.28,0.98,1000
16:16:31.808,15.76,-8.15,-237.25,-0.12,-0.37,-0.61,0.14,0.28,0.98,1000
16:16:31.810,15.76,-8.15,-237.25,-0.18,-0.24,-0.24,0.15,0.28,0.98,1000
16:16:31.814,15.76,-8.15,-237.26,-0.24,-0.37,-0.37,0.15,0.28,0.98,1000
16:16:31.819,15.76,-8.15,-237.26,-0.18,-0.18,-0.3,0.15,0.28,0.98,1000
16:16:31.819,15.76,-8.15,-237.26,-0.12,-0.3,-0.37,0.15,0.28,0.98,1000
16:16:31.820,15.76,-8.15,-237.26,-0.24,-0.18,-0.43,0.15,0.28,0.98,1000
16:16:31.823,15.76,-8.15,-237.26,-0.3,-0.24,-0.55,0.14,0.28,0.98,1000
16:16:31.823,15.76,-8.15,-237.26,-0.37,-0.24,-0.61,0.14,0.28,0.98,1000
16:16:31.827,15.76,-8.15,-237.26,-0.3,-0.37,-0.55,0.15,0.28,0.98,1000
16:16:31.827,15.76,-8.15,-237.26,-0.18,-0.24,-0.37,0.15,0.28,0.98,1000
16:16:31.828,15.76,-8.15,-237.26,-0.18,-0.12,-0.24,0.15,0.28,0.98,1000
16:16:31.830,15.76,-8.15,-237.26,-0.12,-0.3,-0.12,0.15,0.28,0.98,1000
16:16:31.832,15.76,-8.15,-237.26,-0.24,-0.3,-0.49,0.14,0.28,0.98,1000
16:16:31.834,15.76,-8.15,-237.26,-0.24,-0.24,-0.49,0.15,0.28,0.98,1000
16:16:31.837,15.76,-8.15,-237.26,-0.18,-0.37,-0.49,0.15,0.28,0.98,1000
16:16:31.838,15.76,-8.15,-237.26,-0.3,-0.3,-0.43,0.14,0.28,0.98,1000
16:16:31.852,15.76,-8.15,-237.26,-0.18,-0.37,-0.61,0.14,0.28,0.98,1000
16:16:31.853,15.76,-8.15,-237.26,-0.24,-0.37,-0.49,0.14,0.28,0.98,1000
16:16:31.853,15.76,-8.15,-237.26,-0.18,-0.3,-0.43,0.15,0.28,0.98,1000
16:16:31.853,15.76,-8.15,-237.26,-0.3,-0.37,-0.3,0.15,0.28,0.98,1000
16:16:31.853,15.76,-8.16,-237.27,-0.3,-0.24,-0.24,0.15,0.28,0.98,1000
16:16:31.853,15.76,-8.16,-237.27,-0.37,-0.3,-0.37,0.14,0.28,0.98,1000
16:16:31.853,15.76,-8.16,-237.27,-0.37,-0.18,-0.55,0.14,0.28,0.98,1000
16:16:31.854,15.76,-8.16,-237.27,-0.18,-0.18,-0.55,0.15,0.28,0.98,1000
16:16:31.857,15.76,-8.16,-237.27,-0.18,-0.18,-0.37,0.14,0.28,0.98,1000
16:16:31.858,15.76,-8.15,-237.27,-0.3,-0.18,-0.37,0.15,0.28,0.98,1000
16:16:31.862,15.76,-8.16,-237.27,-0.3,-0.37,-0.43,0.15,0.28,0.98,1000
16:16:31.862,15.76,-8.16,-237.27,-0.24,-0.24,-0.61,0.14,0.28,0.98,1000
16:16:31.864,15.76,-8.16,-237.27,-0.3,-0.24,-0.37,0.14,0.28,0.98,1000
16:16:31.866,15.76,-8.16,-237.27,-0.37,-0.3,-0.37,0.15,0.28,0.98,1000
16:16:31.868,15.76,-8.16,-237.27,-0.3,-0.24,-0.37,0.15,0.28,0.98,1000
16:16:31.870,15.76,-8.16,-237.27,-0.18,-0.3,-0.24,0.14,0.28,0.98,1000
16:16:31.872,15.76,-8.16,-237.27,-0.18,-0.37,-0.37,0.14,0.28,0.98,1000
16:16:31.874,15.76,-8.16,-237.27,-0.3,-0.3,-0.37,0.15,0.28,0.98,1000
16:16:31.876,15.76,-8.16,-237.27,-0.18,-0.3,-0.37,0.14,0.28,0.98,1000
16:16:31.878,15.76,-8.16,-237.27,-0.3,-0.3,-0.43,0.14,0.28,0.98,1000
16:16:31.880,15.76,-8.16,-237.27,-0.37,-0.18,-0.37,0.14,0.28,0.98,1000
16:16:31.884,15.76,-8.16,-237.28,-0.3,-0.24,-0.37,0.15,0.28,0.98,1000
16:16:31.884,15.76,-8.16,-237.28,-0.18,-0.24,-0.37,0.14,0.28,0.98,1000
16:16:31.886,15.76,-8.16,-237.28,-0.37,-0.24,-0.55,0.14,0.28,0.98,1000
16:16:31.888,15.76,-8.16,-237.28,-0.24,-0.3,-0.49,0.14,0.28,0.98,1000
16:16:31.892,15.76,-8.16,-237.28,-0.37,-0.24,-0.37,0.15,0.28,0.98,1000
16:16:31.892,15.76,-8.16,-237.28,-0.3,-0.37,-0.37,0.14,0.28,0.98,1000
16:16:31.894,15.76,-8.16,-237.28,-0.3,-0.37,-0.3,0.15,0.28,0.98,1000
16:16:31.896,15.76,-8.16,-237.28,-0.3,-0.3,-0.49,0.14,0.28,0.98,1000
16:16:31.898,15.76,-8.16,-237.28,-0.3,-0.43,-0.43,0.15,0.28,0.98,1000
16:16:31.900,15.76,-8.16,-237.28,-0.37,-0.3,-0.43,0.15,0.28,0.98,1000
16:16:31.902,15.76,-8.16,-237.28,-0.24,-0.37,-0.55,0.14,0.28,0.98,1000
16:16:31.905,15.76,-8.16,-237.28,-0.18,-0.37,-0.43,0.15,0.28,0.98,1000
16:16:31.906,15.76,-8.16,-237.28,-0.24,-0.37,-0.37,0.15,0.28,0.98,1000
16:16:31.908,15.76,-8.16,-237.28,-0.24,-0.37,-0.37,0.15,0.28,0.98,1000
16:16:31.910,15.76,-8.16,-237.28,-0.18,-0.3,-0.37,0.15,0.28,0.98,1000
16:16:31.912,15.76,-8.16,-237.28,-0.24,-0.37,-0.55,0.15,0.28,0.98,1000
16:16:31.914,15.76,-8.16,-237.29,-0.24,-0.3,-0.37,0.15,0.28,0.98,1000
16:16:31.916,15.76,-8.16,-237.29,-0.18,-0.37,-0.61,0.14,0.28,0.98,1000
16:16:31.918,15.76,-8.16,-237.29,-0.37,-0.37,-0.37,0.14,0.28,0.98,1000
16:16:31.921,15.76,-8.16,-237.29,-0.24,-0.3,-0.3,0.14,0.28,0.98,1000
16:16:31.922,15.76,-8.16,-237.29,-0.12,-0.37,-0.24,0.15,0.28,0.98,1000
16:16:31.924,15.76,-8.16,-237.29,-0.24,-0.24,-0.43,0.15,0.28,0.98,1000
16:16:31.926,15.76,-8.16,-237.29,-0.37,-0.24,-0.37,0.15,0.28,0.98,1000
16:16:31.928,15.76,-8.16,-237.29,-0.12,-0.37,-0.37,0.15,0.28,0.98,1000
16:16:31.930,15.76,-8.16,-237.29,-0.24,-0.3,-0.3,0.15,0.28,0.98,1000
16:16:31.932,15.76,-8.16,-237.29,-0.06,-0.37,-0.37,0.15,0.28,0.98,1000
16:16:31.937,15.76,-8.16,-237.29,-0.18,-0.18,-0.43,0.15,0.28,0.98,1000
16:16:31.940,15.76,-8.16,-237.29,-0.24,-0.3,-0.43,0.15,0.28,0.98,1000
16:16:31.940,15.76,-8.16,-237.29,-0.12,-0.3,-0.3,0.15,0.28,0.98,1000
16:16:31.940,15.76,-8.16,-237.29,-0.24,-0.37,-0.37,0.15,0.28,0.98,1000
16:16:31.942,15.76,-8.16,-237.29,-0.18,-0.37,-0.37,0.15,0.28,0.98,1000
16:16:31.947,15.76,-8.16,-237.29,-0.18,-0.43,-0.43,0.14,0.28,0.98,1000
16:16:31.948,15.76,-8.16,-237.29,-0.3,-0.3,-0.43,0.14,0.28,0.98,1000
16:16:31.948,15.76,-8.16,-237.3,-0.12,-0.3,-0.24,0.15,0.28,0.98,1000
16:16:31.953,15.76,-8.16,-237.3,-0.12,-0.12,-0.55,0.14,0.28,0.98,1000
16:16:31.962,15.76,-8.16,-237.3,-0.18,-0.24,-0.43,0.15,0.28,0.98,1000
16:16:31.962,15.76,-8.16,-237.3,-0.12,-0.37,-0.49,0.15,0.28,0.98,1000
16:16:31.962,15.76,-8.16,-237.3,-0.12,-0.06,-0.37,0.14,0.28,0.98,1000
16:16:31.962,15.76,-8.16,-237.3,-0.18,-0.18,-0.43,0.14,0.28,0.98,1000
16:16:31.962,15.76,-8.16,-237.3,-0.18,-0.3,-0.43,0.14,0.28,0.98,1000
16:16:31.962,15.76,-8.16,-237.3,-0.37,-0.18,-0.37,0.14,0.28,0.98,1000
16:16:31.964,15.76,-8.16,-237.3,-0.18,0.0,-0.49,0.15,0.28,0.98,1000
16:16:31.966,15.76,-8.16,-237.3,-0.18,-0.37,-0.37,0.14,0.28,0.98,1000
16:16:31.968,15.76,-8.16,-237.3,-0.12,-0.49,-0.37,0.15,0.28,0.98,1000
16:16:31.970,15.76,-8.16,-237.3,-0.3,-0.37,-0.61,0.15,0.28,0.98,1000
16:16:31.972,15.76,-8.16,-237.3,-0.18,-0.24,-0.55,0.14,0.28,0.98,1000
16:16:31.974,15.76,-8.16,-237.3,-0.37,-0.37,-0.49,0.14,0.28,0.98,1000
16:16:31.977,15.76,-8.16,-237.3,-0.37,-0.37,-0.49,0.14,0.28,0.98,1000
16:16:31.979,15.76,-8.16,-237.3,-0.18,-0.37,-0.37,0.14,0.28,0.98,1000
16:16:31.982,15.76,-8.16,-237.3,-0.37,-0.43,-0.49,0.14,0.28,0.98,1000
16:16:31.984,15.76,-8.16,-237.31,-0.24,-0.3,-0.43,0.14,0.28,0.98,1000
16:16:31.987,15.76,-8.16,-237.31,-0.18,-0.3,-0.43,0.14,0.28,0.98,1000
16:16:31.990,15.76,-8.16,-237.31,-0.3,-0.3,-0.37,0.15,0.28,0.98,1000
16:16:31.991,15.76,-8.16,-237.31,-0.37,-0.18,-0.37,0.14,0.28,0.98,1000
16:16:31.993,15.76,-8.16,-237.31,-0.3,-0.37,-0.43,0.14,0.28,0.98,1000
16:16:31.994,15.76,-8.16,-237.31,-0.37,-0.18,-0.3,0.14,0.28,0.98,1000
16:16:31.997,15.76,-8.16,-237.31,-0.37,-0.18,-0.37,0.14,0.28,0.98,1000
16:16:31.998,15.76,-8.16,-237.31,-0.3,-0.3,-0.3,0.14,0.28,0.98,1000
16:16:32.000,15.76,-8.16,-237.31,-0.37,-0.18,-0.3,0.15,0.28,0.98,1000
16:16:32.004,15.76,-8.16,-237.31,-0.3,-0.37,-0.3,0.14,0.28,0.98,1000
16:16:32.004,15.76,-8.16,-237.31,-0.18,-0.3,-0.43,0.14,0.28,0.98,1000
16:16:32.008,15.76,-8.16,-237.31,-0.3,-0.37,-0.3,0.15,0.28,0.98,1000
16:16:32.008,15.76,-8.16,-237.31,-0.3,-0.18,-0.55,0.15,0.28,0.98,1000
16:16:32.010,15.76,-8.16,-237.31,-0.18,-0.37,-0.55,0.14,0.28,0.98,1000
16:16:32.012,15.76,-8.16,-237.31,-0.18,-0.24,-0.49,0.15,0.28,0.98,1000
16:16:32.014,15.76,-8.16,-237.32,-0.37,-0.24,-0.37,0.14,0.28,0.98,1000
16:16:32.016,15.76,-8.16,-237.32,-0.12,-0.24,-0.3,0.14,0.28,0.98,1000
16:16:32.019,15.76,-8.16,-237.32,-0.3,-0.18,-0.43,0.14,0.28,0.98,1000
16:16:32.020,15.76,-8.16,-237.32,-0.24,-0.24,-0.49,0.15,0.28,0.98,1000
16:16:32.023,15.76,-8.16,-237.32,-0.18,-0.3,-0.37,0.15,0.28,0.98,1000
16:16:32.024,15.76,-8.16,-237.32,-0.24,-0.37,-0.43,0.14,0.28,0.98,1000
16:16:32.026,15.76,-8.16,-237.32,-0.06,-0.18,-0.37,0.14,0.28,0.98,1000
16:16:32.028,15.76,-8.16,-237.32,-0.12,-0.12,-0.37,0.14,0.28,0.98,1000
16:16:32.030,15.76,-8.16,-237.32,-0.12,-0.24,-0.37,0.14,0.28,0.98,1000
16:16:32.032,15.76,-8.16,-237.32,-0.18,-0.12,-0.37,0.14,0.28,0.98,1000
16:16:32.034,15.76,-8.16,-237.32,-0.12,-0.24,-0.43,0.15,0.28,0.98,1000
16:16:32.037,15.76,-8.16,-237.32,-0.18,-0.06,-0.49,0.14,0.28,0.98,1000
16:16:32.038,15.76,-8.16,-237.32,-0.24,-0.18,-0.43,0.14,0.28,0.98,1000
16:16:32.042,15.76,-8.16,-237.32,-0.24,-0.3,-0.49,0.14,0.28,0.98,1000
16:16:32.042,15.76,-8.16,-237.32,-0.24,-0.24,-0.37,0.14,0.28,0.98,1000
16:16:32.059,15.76,-8.16,-237.32,-0.24,-0.12,-0.37,0.15,0.28,0.98,1000
16:16:32.059,15.76,-8.16,-237.33,-0.24,-0.3,-0.43,0.14,0.28,0.98,1000
16:16:32.060,15.76,-8.16,-237.33,-0.18,-0.43,-0.43,0.14,0.28,0.98,1000
16:16:32.060,15.76,-8.16,-237.33,-0.24,-0.3,-0.49,0.14,0.28,0.98,1000
16:16:32.060,15.76,-8.16,-237.33,-0.18,-0.37,-0.3,0.14,0.28,0.98,1000
16:16:32.060,15.76,-8.16,-237.33,-0.37,-0.37,-0.37,0.14,0.28,0.98,1000
16:16:32.060,15.76,-8.16,-237.33,-0.18,-0.24,-0.55,0.15,0.28,0.98,1000
16:16:32.060,15.76,-8.16,-237.33,-0.18,-0.24,-0.43,0.15,0.28,0.98,1000
16:16:32.060,15.76,-8.16,-237.33,-0.3,-0.37,-0.37,0.15,0.28,0.98,1000
16:16:32.062,15.76,-8.16,-237.33,-0.24,-0.18,-0.37,0.15,0.28,0.98,1000
16:16:32.064,15.76,-8.16,-237.33,-0.3,-0.24,-0.37,0.15,0.28,0.98,1000
16:16:32.067,15.76,-8.16,-237.33,-0.12,-0.37,-0.49,0.15,0.28,0.98,1000
16:16:32.068,15.76,-8.16,-237.33,-0.18,-0.37,-0.43,0.15,0.28,0.98,1000
16:16:32.070,15.76,-8.16,-237.33,-0.24,-0.18,-0.61,0.14,0.28,0.98,1000
16:16:32.072,15.76,-8.16,-237.33,-0.3,-0.12,-0.49,0.15,0.28,0.98,1000
16:16:32.074,15.76,-8.16,-237.33,-0.3,-0.18,-0.37,0.14,0.28,0.98,1000
16:16:32.076,15.76,-8.16,-237.33,-0.24,-0.18,-0.3,0.14,0.28,0.98,1000
16:16:32.078,15.76,-8.16,-237.34,-0.18,-0.18,-0.37,0.14,0.28,0.98,1000
16:16:32.080,15.76,-8.16,-237.34,-0.24,-0.37,-0.3,0.14,0.28,0.98,1000
16:16:32.082,15.76,-8.16,-237.34,-0.18,-0.37,-0.37,0.15,0.28,0.98,1000
16:16:32.084,15.76,-8.16,-237.34,-0.18,-0.3,-0.37,0.14,0.28,0.98,1000
16:16:32.086,15.76,-8.16,-237.34,-0.18,-0.3,-0.43,0.14,0.28,0.98,1000
16:16:32.088,15.76,-8.16,-237.34,-0.24,-0.24,-0.43,0.15,0.28,0.98,1000
16:16:32.090,15.76,-8.16,-237.34,-0.18,-0.24,-0.43,0.14,0.28,0.98,1000
16:16:32.092,15.76,-8.16,-237.34,-0.18,-0.37,-0.43,0.14,0.28,0.98,1000
16:16:32.094,15.76,-8.16,-237.34,-0.18,-0.3,-0.49,0.15,0.28,0.98,1000
16:16:32.096,15.76,-8.16,-237.34,-0.12,-0.18,-0.37,0.14,0.28,0.98,1000
16:16:32.098,15.76,-8.16,-237.34,-0.3,-0.3,-0.49,0.14,0.28,0.98,1000
16:16:32.100,15.76,-8.16,-237.34,-0.18,-0.37,-0.49,0.14,0.28,0.98,1000
16:16:32.102,15.76,-8.16,-237.34,-0.18,-0.37,-0.37,0.14,0.28,0.98,1000
16:16:32.104,15.76,-8.16,-237.34,-0.18,-0.18,-0.37,0.14,0.28,0.98,1000
16:16:32.106,15.76,-8.16,-237.34,-0.24,-0.24,-0.43,0.14,0.28,0.98,1000
16:16:32.108,15.76,-8.16,-237.34,-0.18,-0.24,-0.49,0.14,0.28,0.98,1000
16:16:32.110,15.76,-8.16,-237.34,-0.24,-0.3,-0.61,0.15,0.28,0.98,1000
16:16:32.112,15.76,-8.16,-237.35,-0.18,-0.3,-0.49,0.15,0.28,0.98,1000
16:16:32.114,15.76,-8.16,-237.35,-0.18,-0.37,-0.49,0.14,0.28,0.98,1000
16:16:32.116,15.76,-8.16,-237.35,-0.18,-0.43,-0.37,0.15,0.28,0.98,1000
16:16:32.118,15.76,-8.16,-237.35,-0.3,-0.24,-0.61,0.14,0.28,0.98,1000
16:16:32.121,15.76,-8.16,-237.35,-0.37,-0.18,-0.37,0.14,0.28,0.98,1000
16:16:32.124,15.76,-8.16,-237.35,-0.24,-0.3,-0.37,0.15,0.28,0.98,1000
16:16:32.124,15.76,-8.16,-237.35,-0.3,-0.3,-0.37,0.15,0.28,0.98,1000
16:16:32.126,15.76,-8.16,-237.35,-0.18,-0.24,-0.3,0.15,0.28,0.98,1000
16:16:32.130,15.76,-8.16,-237.35,-0.18,-0.12,-0.3,0.14,0.28,0.98,1000
16:16:32.130,15.76,-8.16,-237.35,-0.18,-0.37,-0.55,0.14,0.28,0.98,1000
16:16:32.134,15.76,-8.16,-237.35,-0.3,-0.37,-0.61,0.15,0.28,0.98,1000
16:16:32.134,15.76,-8.16,-237.35,-0.24,-0.3,-0.37,0.14,0.28,0.98,1000
16:16:32.136,15.76,-8.16,-237.35,-0.18,-0.12,-0.37,0.15,0.28,0.98,1000
16:16:32.138,15.76,-8.16,-237.35,-0.24,-0.18,-0.43,0.15,0.28,0.98,1000
16:16:32.140,15.76,-8.16,-237.35,-0.3,-0.18,-0.49,0.15,0.28,0.98,1000
16:16:32.142,15.76,-8.16,-237.36,-0.18,-0.37,-0.55,0.15,0.28,0.98,1000
16:16:32.144,15.76,-8.16,-237.36,-0.12,-0.3,-0.55,0.15,0.28,0.98,1000
16:16:32.146,15.76,-8.16,-237.36,-0.18,-0.3,-0.37,0.15,0.28,0.98,1000
16:16:32.148,15.76,-8.16,-237.36,-0.24,-0.37,-0.37,0.14,0.28,0.98,1000
16:16:32.162,15.76,-8.16,-237.36,-0.3,-0.24,-0.43,0.14,0.28,0.98,1000
16:16:32.165,15.76,-8.16,-237.36,-0.24,-0.3,-0.3,0.15,0.28,0.98,1000
16:16:32.165,15.76,-8.16,-237.36,-0.12,-0.18,-0.43,0.15,0.28,0.98,1000
16:16:32.165,15.76,-8.16,-237.36,-0.24,-0.24,-0.49,0.15,0.28,0.98,1000
16:16:32.165,15.76,-8.16,-237.36,0.0,-0.24,-0.61,0.15,0.28,0.98,1000
16:16:32.166,15.76,-8.16,-237.36,-0.18,-0.43,-0.37,0.15,0.28,0.98,1000
16:16:32.166,15.76,-8.16,-237.36,-0.12,-0.37,-0.55,0.15,0.28,0.98,1000
16:16:32.166,15.76,-8.16,-237.36,-0.24,-0.3,-0.43,0.15,0.28,0.98,1000
16:16:32.166,15.76,-8.16,-237.36,-0.24,-0.3,-0.49,0.14,0.28,0.98,1000
16:16:32.168,15.76,-8.16,-237.36,-0.3,-0.3,-0.43,0.15,0.28,0.98,1000
16:16:32.171,15.76,-8.16,-237.36,-0.24,-0.24,-0.43,0.14,0.28,0.98,1000
16:16:32.173,15.76,-8.16,-237.36,-0.18,-0.37,-0.24,0.15,0.28,0.98,1000
16:16:32.174,15.76,-8.16,-237.37,-0.18,-0.18,-0.43,0.14,0.28,0.98,1000
16:16:32.177,15.76,-8.16,-237.37,-0.24,-0.3,-0.43,0.14,0.28,0.98,1000
16:16:32.179,15.76,-8.16,-237.37,-0.37,-0.3,-0.43,0.14,0.28,0.98,1000
16:16:32.180,15.76,-8.16,-237.37,-0.18,-0.37,-0.37,0.14,0.28,0.98,1000
16:16:32.182,15.76,-8.16,-237.37,-0.18,-0.37,-0.43,0.14,0.28,0.98,1000
16:16:32.184,15.76,-8.16,-237.37,-0.12,-0.37,-0.49,0.14,0.28,0.98,1000
16:16:32.186,15.76,-8.16,-237.37,-0.12,-0.18,-0.37,0.15,0.28,0.98,1000
16:16:32.188,15.76,-8.16,-237.37,-0.06,-0.37,-0.49,0.14,0.28,0.98,1000
16:16:32.190,15.76,-8.16,-237.37,-0.12,-0.3,-0.49,0.15,0.28,0.98,1000
16:16:32.192,15.76,-8.16,-237.37,-0.24,-0.37,-0.43,0.15,0.28,0.98,1000
16:16:32.195,15.76,-8.16,-237.37,-0.12,-0.24,-0.55,0.14,0.28,0.98,1000
16:16:32.196,15.76,-8.16,-237.37,-0.24,-0.37,-0.49,0.14,0.28,0.98,1000
16:16:32.198,15.76,-8.16,-237.37,-0.24,-0.12,-0.37,0.14,0.28,0.98,1000
16:16:32.200,15.76,-8.16,-237.37,-0.24,-0.37,-0.37,0.14,0.28,0.97,1000
16:16:32.202,15.76,-8.16,-237.37,-0.37,-0.43,-0.43,0.15,0.28,0.98,1000
16:16:32.204,15.76,-8.16,-237.37,-0.12,-0.24,-0.37,0.14,0.28,0.98,1000
16:16:32.206,15.76,-8.16,-237.38,-0.24,-0.37,-0.37,0.14,0.28,0.98,1000
16:16:32.208,15.76,-8.16,-237.38,-0.3,-0.3,-0.3,0.14,0.28,0.98,1000
16:16:32.210,15.76,-8.16,-237.38,-0.3,-0.37,-0.43,0.14,0.28,0.98,1000
16:16:32.212,15.76,-8.16,-237.38,-0.18,-0.3,-0.37,0.15,0.28,0.98,1000
16:16:32.214,15.76,-8.16,-237.38,-0.37,-0.43,-0.43,0.15,0.28,0.98,1000
16:16:32.217,15.76,-8.16,-237.38,-0.3,-0.18,-0.37,0.14,0.28,0.98,1000
16:16:32.218,15.76,-8.16,-237.38,-0.24,-0.18,-0.49,0.14,0.28,0.98,1000
16:16:32.220,15.76,-8.16,-237.38,-0.18,-0.3,-0.49,0.15,0.28,0.98,1000
16:16:32.224,15.76,-8.16,-237.38,-0.24,-0.18,-0.55,0.14,0.28,0.98,1000
16:16:32.224,15.76,-8.16,-237.38,-0.24,-0.3,-0.37,0.14,0.28,0.98,1000
16:16:32.230,15.76,-8.16,-237.38,-0.18,-0.18,-0.37,0.15,0.28,0.98,1000
16:16:32.230,15.76,-8.16,-237.38,-0.18,0.0,-0.55,0.14,0.28,0.98,1000
16:16:32.230,15.76,-8.16,-237.38,-0.18,-0.24,-0.49,0.15,0.28,0.98,1000
16:16:32.232,15.76,-8.16,-237.38,-0.24,-0.3,-0.49,0.15,0.28,0.98,1000
16:16:32.234,15.76,-8.16,-237.38,-0.3,-0.24,-0.43,0.14,0.28,0.98,1000
16:16:32.236,15.76,-8.16,-237.38,-0.18,-0.3,-0.37,0.14,0.28,0.98,1000
16:16:32.239,15.76,-8.16,-237.38,-0.18,-0.18,-0.24,0.14,0.28,0.98,1000
16:16:32.240,15.76,-8.16,-237.38,-0.18,-0.18,-0.37,0.14,0.28,0.98,1000
16:16:32.242,15.76,-8.16,-237.38,-0.18,-0.3,-0.43,0.15,0.28,0.98,1000
16:16:32.244,15.76,-8.16,-237.38,-0.24,-0.3,-0.55,0.14,0.28,0.98,1000
16:16:32.247,15.76,-8.16,-237.39,-0.24,-0.3,-0.49,0.15,0.28,0.98,1000
16:16:32.262,15.76,-8.16,-237.39,-0.18,-0.24,-0.43,0.15,0.28,0.98,1000
16:16:32.263,15.76,-8.16,-237.39,-0.06,-0.18,-0.55,0.15,0.28,0.98,1000
16:16:32.263,15.76,-8.16,-237.39,-0.12,-0.37,-0.37,0.15,0.28,0.98,1000
16:16:32.263,15.76,-8.16,-237.39,-0.18,-0.24,-0.43,0.14,0.28,0.98,1000
16:16:32.263,15.76,-8.16,-237.39,-0.3,-0.18,-0.49,0.15,0.28,0.98,1000
16:16:32.263,15.76,-8.16,-237.39,-0.3,-0.37,-0.37,0.14,0.28,0.98,1000
16:16:32.263,15.76,-8.16,-237.39,-0.18,-0.37,-0.43,0.14,0.28,0.98,1000
16:16:32.263,15.76,-8.16,-237.39,-0.18,-0.37,-0.43,0.14,0.28,0.98,1000
16:16:32.265,15.76,-8.16,-237.39,-0.24,-0.3,-0.49,0.15,0.28,0.98,1000
16:16:32.266,15.76,-8.16,-237.39,-0.3,-0.24,-0.43,0.15,0.28,0.98,1000
16:16:32.268,15.76,-8.16,-237.39,-0.18,-0.24,-0.37,0.15,0.28,0.98,1000
16:16:32.271,15.76,-8.16,-237.39,-0.18,-0.37,-0.43,0.14,0.28,0.98,1000
16:16:32.272,15.76,-8.16,-237.39,-0.37,-0.3,-0.37,0.15,0.28,0.98,1000
16:16:32.274,15.76,-8.16,-237.39,-0.37,-0.24,-0.37,0.14,0.28,0.98,1000
16:16:32.276,15.76,-8.16,-237.39,-0.24,-0.18,-0.37,0.14,0.28,0.98,1000
16:16:32.278,15.76,-8.16,-237.4,-0.18,-0.24,-0.67,0.14,0.28,0.98,1000
16:16:32.280,15.76,-8.16,-237.4,-0.24,-0.3,-0.55,0.15,0.28,0.98,1000
16:16:32.282,15.76,-8.16,-237.4,-0.18,-0.3,-0.49,0.15,0.28,0.98,1000
16:16:32.284,15.76,-8.16,-237.4,-0.3,-0.37,-0.37,0.14,0.28,0.98,1000
16:16:32.286,15.76,-8.16,-237.4,-0.24,-0.24,-0.3,0.14,0.28,0.98,1000
16:16:32.288,15.76,-8.16,-237.4,-0.37,-0.43,-0.49,0.14,0.28,0.98,1000
16:16:32.290,15.76,-8.16,-237.4,-0.3,-0.49,-0.43,0.14,0.28,0.98,1000
16:16:32.292,15.76,-8.16,-237.4,-0.3,-0.18,-0.43,0.14,0.28,0.98,1000
16:16:32.294,15.76,-8.16,-237.4,-0.18,-0.37,-0.49,0.15,0.28,0.98,1000
16:16:32.297,15.76,-8.16,-237.4,-0.24,-0.37,-0.37,0.15,0.28,0.98,1000
16:16:32.298,15.76,-8.16,-237.4,-0.18,-0.49,-0.43,0.14,0.28,0.98,1000
16:16:32.300,15.75,-8.16,-237.4,-0.24,-0.43,-0.43,0.15,0.28,0.98,1000
16:16:32.302,15.75,-8.16,-237.4,-0.18,-0.37,-0.3,0.14,0.28,0.98,1000
16:16:32.304,15.75,-8.16,-237.4,-0.3,-0.3,-0.43,0.15,0.28,0.98,1000
16:16:32.306,15.75,-8.16,-237.41,-0.37,-0.24,-0.43,0.15,0.28,0.98,1000
16:16:32.308,15.75,-8.16,-237.41,-0.37,-0.37,-0.43,0.14,0.28,0.98,1000
16:16:32.310,15.75,-8.16,-237.41,-0.12,-0.3,-0.3,0.14,0.28,0.98,1000
16:16:32.312,15.75,-8.16,-237.41,-0.18,-0.3,-0.37,0.14,0.28,0.98,1000
16:16:32.315,15.75,-8.16,-237.41,-0.3,-0.24,-0.3,0.14,0.28,0.98,1000
16:16:32.316,15.75,-8.16,-237.41,-0.06,-0.24,-0.37,0.14,0.28,0.98,1000
16:16:32.318,15.75,-8.16,-237.41,-0.18,-0.37,-0.37,0.14,0.28,0.98,1000
16:16:32.320,15.75,-8.16,-237.41,-0.12,-0.37,-0.43,0.15,0.28,0.98,1000
16:16:32.322,15.75,-8.16,-237.41,-0.24,-0.3,-0.61,0.15,0.28,0.98,1000
16:16:32.326,15.75,-8.16,-237.41,-0.24,-0.3,-0.49,0.14,0.28,0.98,1000
16:16:32.326,15.75,-8.16,-237.41,0.0,-0.24,-0.55,0.14,0.28,0.98,1000
16:16:32.328,15.75,-8.16,-237.41,-0.06,-0.24,-0.37,0.14,0.28,0.98,1000
16:16:32.330,15.75,-8.16,-237.41,-0.3,-0.3,-0.43,0.14,0.28,0.98,1000
16:16:32.332,15.75,-8.16,-237.41,-0.18,-0.37,-0.49,0.15,0.28,0.98,1000
16:16:32.334,15.75,-8.16,-237.41,-0.24,-0.37,-0.43,0.14,0.28,0.98,1000
16:16:32.336,15.75,-8.16,-237.41,-0.3,-0.3,-0.43,0.14,0.28,0.98,1000
16:16:32.338,15.75,-8.16,-237.41,-0.37,-0.18,-0.43,0.14,0.28,0.98,1000
16:16:32.341,15.75,-8.16,-237.42,-0.18,-0.24,-0.43,0.15,0.28,0.98,1000
16:16:32.342,15.75,-8.16,-237.42,-0.18,-0.24,-0.61,0.15,0.28,0.98,1000
16:16:32.344,15.75,-8.16,-237.42,-0.06,-0.37,-0.49,0.15,0.28,0.98,1000
16:16:32.346,15.75,-8.16,-237.42,0.06,-0.3,-0.24,0.15,0.28,0.98,1000
16:16:32.349,15.75,-8.16,-237.42,-0.3,-0.37,-0.37,0.14,0.28,0.98,1000
16:16:32.352,15.75,-8.16,-237.42,-0.24,-0.37,-0.37,0.14,0.28,0.98,1000
16:16:32.365,15.75,-8.16,-237.42,-0.3,-0.3,-0.55,0.14,0.28,0.98,1000
16:16:32.366,15.75,-8.16,-237.42,-0.3,-0.3,-0.49,0.15,0.28,0.98,1000
16:16:32.366,15.75,-8.16,-237.42,-0.18,-0.3,-0.49,0.14,0.28,0.98,1000
16:16:32.366,15.75,-8.16,-237.42,-0.3,-0.3,-0.43,0.14,0.28,0.98,1000
16:16:32.366,15.75,-8.16,-237.42,-0.18,-0.12,-0.37,0.14,0.28,0.98,1000
16:16:32.366,15.75,-8.16,-237.42,-0.24,-0.18,-0.55,0.14,0.28,0.98,1000
16:16:32.366,15.75,-8.16,-237.42,-0.18,-0.24,-0.37,0.15,0.28,0.98,1000
16:16:32.367,15.75,-8.16,-237.42,-0.24,-0.3,-0.43,0.14,0.28,0.98,1000
16:16:32.368,15.75,-8.16,-237.42,-0.12,-0.37,-0.49,0.14,0.28,0.98,1000
16:16:32.370,15.75,-8.16,-237.43,-0.37,-0.3,-0.37,0.14,0.28,0.98,1000
16:16:32.374,15.75,-8.16,-237.43,-0.06,-0.24,-0.55,0.15,0.28,0.98,1000
16:16:32.375,15.75,-8.16,-237.43,-0.12,-0.24,-0.61,0.15,0.28,0.98,1000
16:16:32.376,15.75,-8.16,-237.43,-0.18,-0.43,-0.43,0.15,0.28,0.98,1000
16:16:32.378,15.75,-8.16,-237.43,-0.24,-0.43,-0.37,0.14,0.28,0.98,1000
16:16:32.380,15.75,-8.16,-237.43,-0.24,-0.3,-0.49,0.15,0.28,0.98,1000
16:16:32.382,15.75,-8.16,-237.43,-0.24,-0.24,-0.49,0.15,0.28,0.98,1000
16:16:32.384,15.75,-8.16,-237.43,-0.12,-0.37,-0.49,0.14,0.28,0.98,1000
16:16:32.386,15.75,-8.16,-237.43,-0.3,-0.37,-0.55,0.14,0.28,0.98,1000
16:16:32.388,15.75,-8.16,-237.43,-0.06,-0.3,-0.37,0.15,0.28,0.98,1000
16:16:32.391,15.75,-8.16,-237.43,-0.12,-0.37,-0.55,0.15,0.28,0.98,1000
16:16:32.392,15.75,-8.16,-237.43,-0.18,-0.3,-0.55,0.15,0.28,0.98,1000
16:16:32.394,15.75,-8.16,-237.43,-0.24,-0.3,-0.37,0.15,0.28,0.98,1000
16:16:32.404,15.75,-8.16,-237.43,-0.12,-0.37,-0.24,0.15,0.28,0.98,1000
16:16:32.404,15.75,-8.16,-237.43,-0.24,-0.18,-0.43,0.15,0.28,0.98,1000
16:16:32.404,15.75,-8.16,-237.43,-0.24,-0.24,-0.43,0.14,0.28,0.98,1000
16:16:32.405,15.75,-8.16,-237.44,-0.24,-0.3,-0.3,0.14,0.28,0.98,1000
16:16:32.405,15.75,-8.16,-237.44,-0.24,-0.3,-0.37,0.15,0.28,0.98,1000
16:16:32.406,15.75,-8.16,-237.44,-0.24,-0.24,-0.43,0.14,0.28,0.98,1000
16:16:32.410,15.75,-8.16,-237.44,-0.24,-0.3,-0.37,0.14,0.28,0.98,1000
16:16:32.411,15.75,-8.16,-237.44,-0.12,-0.18,-0.37,0.14,0.28,0.98,1000
16:16:32.412,15.75,-8.16,-237.44,-0.24,-0.24,-0.37,0.14,0.28,0.98,1000
16:16:32.414,15.75,-8.16,-237.44,-0.37,-0.3,-0.43,0.14,0.28,0.98,1000
16:16:32.418,15.75,-8.16,-237.44,-0.12,-0.24,-0.43,0.14,0.28,0.98,1000
16:16:32.419,15.75,-8.16,-237.44,-0.18,-0.3,-0.37,0.15,0.28,0.98,1000
16:16:32.420,15.75,-8.16,-237.44,-0.12,-0.18,-0.37,0.14,0.28,0.98,1000
16:16:32.422,15.75,-8.16,-237.44,-0.06,-0.12,-0.37,0.14,0.28,0.98,1000
16:16:32.424,15.75,-8.16,-237.44,-0.18,-0.37,-0.37,0.15,0.28,0.98,1000
16:16:32.426,15.75,-8.16,-237.44,-0.24,-0.3,-0.3,0.15,0.28,0.98,1000
16:16:32.429,15.75,-8.16,-237.44,-0.18,-0.37,-0.37,0.15,0.28,0.98,1000
16:16:32.430,15.75,-8.16,-237.44,-0.3,-0.3,-0.55,0.15,0.28,0.98,1000
16:16:32.433,15.75,-8.16,-237.44,-0.37,-0.37,-0.37,0.14,0.28,0.98,1000
16:16:32.434,15.75,-8.16,-237.44,-0.24,-0.24,-0.73,0.14,0.28,0.98,1000
16:16:32.436,15.75,-8.16,-237.45,-0.18,-0.37,-0.3,0.14,0.28,0.98,1000
16:16:32.438,15.75,-8.16,-237.45,-0.24,-0.37,-0.43,0.15,0.28,0.98,1000
16:16:32.440,15.75,-8.16,-237.45,-0.24,-0.43,-0.37,0.14,0.28,0.98,1000
16:16:32.443,15.75,-8.16,-237.45,-0.24,-0.37,-0.43,0.14,0.28,0.98,1000
16:16:32.444,15.75,-8.16,-237.45,-0.3,-0.37,-0.24,0.15,0.28,0.98,1000
16:16:32.446,15.75,-8.16,-237.45,-0.24,-0.37,-0.37,0.14,0.28,0.98,1000
16:16:32.448,15.75,-8.16,-237.45,-0.37,-0.18,-0.37,0.15,0.28,0.98,1000
16:16:32.452,15.75,-8.16,-237.45,-0.37,-0.37,-0.37,0.14,0.28,0.98,1000
16:16:32.452,15.75,-8.16,-237.45,-0.3,-0.37,-0.37,0.14,0.28,0.98,1000
16:16:32.468,15.75,-8.16,-237.45,-0.37,-0.37,-0.37,0.15,0.28,0.98,1000
16:16:32.468,15.75,-8.16,-237.45,-0.24,-0.37,-0.61,0.14,0.28,0.98,1000
16:16:32.468,15.75,-8.16,-237.45,-0.18,-0.18,-0.49,0.15,0.28,0.98,1000
16:16:32.468,15.75,-8.16,-237.45,-0.3,-0.43,-0.55,0.15,0.28,0.98,1000
16:16:32.468,15.75,-8.16,-237.45,-0.24,-0.12,-0.43,0.15,0.28,0.98,1000
16:16:32.468,15.75,-8.16,-237.45,-0.18,-0.18,-0.43,0.15,0.28,0.98,1000
16:16:32.468,15.75,-8.16,-237.45,-0.18,-0.3,-0.43,0.14,0.28,0.98,1000
16:16:32.468,15.75,-8.16,-237.46,-0.12,-0.24,-0.37,0.14,0.28,0.98,1000
16:16:32.470,15.75,-8.16,-237.46,-0.18,-0.37,-0.37,0.14,0.28,0.98,1000
16:16:32.472,15.75,-8.16,-237.46,-0.12,-0.37,-0.37,0.15,0.28,0.98,1000
16:16:32.474,15.75,-8.16,-237.46,-0.3,-0.24,-0.49,0.15,0.28,0.98,1000
16:16:32.476,15.75,-8.16,-237.46,-0.37,-0.3,-0.49,0.14,0.28,0.98,1000
16:16:32.478,15.75,-8.16,-237.46,-0.24,-0.24,-0.55,0.14,0.28,0.98,1000
16:16:32.480,15.75,-8.16,-237.46,-0.24,-0.18,-0.61,0.14,0.28,0.98,1000
16:16:32.482,15.75,-8.16,-237.46,-0.18,-0.3,-0.55,0.14,0.28,0.98,1000
16:16:32.484,15.75,-8.16,-237.46,-0.12,-0.3,-0.55,0.15,0.28,0.98,1000
16:16:32.486,15.75,-8.16,-237.46,-0.24,-0.37,-0.37,0.14,0.28,0.98,1000
16:16:32.488,15.75,-8.16,-237.46,-0.18,-0.24,-0.43,0.15,0.28,0.98,1000
16:16:32.490,15.75,-8.16,-237.46,-0.3,-0.12,-0.3,0.15,0.28,0.98,1000
16:16:32.492,15.75,-8.16,-237.46,-0.18,-0.24,-0.37,0.14,0.28,0.98,1000
16:16:32.494,15.75,-8.16,-237.46,-0.3,-0.3,-0.61,0.14,0.28,0.98,1000
16:16:32.496,15.75,-8.16,-237.46,-0.24,-0.37,-0.55,0.14,0.28,0.98,1000
16:16:32.498,15.75,-8.16,-237.46,-0.24,-0.37,-0.43,0.14,0.28,0.98,1000
16:16:32.500,15.75,-8.16,-237.47,-0.12,-0.12,-0.37,0.14,0.28,0.98,1000
16:16:32.502,15.75,-8.16,-237.47,-0.24,-0.18,-0.37,0.15,0.28,0.98,1000
16:16:32.504,15.75,-8.16,-237.47,-0.12,-0.3,-0.37,0.15,0.28,0.98,1000
16:16:32.506,15.75,-8.16,-237.47,-0.18,-0.3,-0.43,0.15,0.28,0.98,1000
16:16:32.508,15.75,-8.16,-237.47,-0.24,-0.37,-0.37,0.15,0.28,0.98,1000
16:16:32.510,15.75,-8.16,-237.47,-0.18,-0.37,-0.43,0.15,0.28,0.98,1000
16:16:32.512,15.75,-8.16,-237.47,-0.18,-0.37,-0.49,0.15,0.28,0.98,1000
16:16:32.514,15.75,-8.16,-237.47,-0.06,-0.24,-0.43,0.14,0.28,0.98,1000
16:16:32.516,15.75,-8.16,-237.47,-0.24,-0.37,-0.37,0.14,0.28,0.98,1000
16:16:32.522,15.75,-8.16,-237.47,-0.24,-0.12,-0.43,0.14,0.28,0.98,1000
16:16:32.522,15.75,-8.16,-237.47,-0.18,-0.18,-0.37,0.14,0.28,0.98,1000
16:16:32.523,15.75,-8.16,-237.47,-0.24,-0.18,-0.37,0.14,0.28,0.98,1000
16:16:32.524,15.75,-8.16,-237.47,-0.18,-0.37,-0.37,0.15,0.28,0.98,1000
16:16:32.526,15.75,-8.16,-237.47,-0.3,-0.3,-0.43,0.15,0.28,0.98,1000
16:16:32.531,15.75,-8.16,-237.47,-0.3,-0.3,-0.49,0.15,0.28,0.98,1000
16:16:32.531,15.76,-8.16,-237.47,-0.18,-0.37,-0.37,0.14,0.28,0.98,1000
16:16:32.533,15.76,-8.16,-237.48,-0.24,-0.43,-0.49,0.14,0.28,0.98,1000
16:16:32.535,15.76,-8.16,-237.48,-0.37,-0.37,-0.49,0.15,0.28,0.98,1000
16:16:32.536,15.76,-8.16,-237.48,-0.3,-0.3,-0.3,0.15,0.28,0.98,1000
16:16:32.538,15.76,-8.16,-237.48,-0.37,-0.3,-0.49,0.15,0.28,0.98,1000
16:16:32.540,15.76,-8.16,-237.48,-0.24,-0.3,-0.55,0.14,0.28,0.98,1000
16:16:32.542,15.76,-8.16,-237.48,-0.18,-0.37,-0.43,0.14,0.28,0.98,1000
16:16:32.544,15.76,-8.16,-237.48,-0.49,-0.43,-0.43,0.14,0.28,0.98,1000
16:16:32.546,15.76,-8.16,-237.48,-0.24,-0.37,-0.37,0.14,0.28,0.98,1000
16:16:32.549,15.76,-8.16,-237.48,-0.18,-0.37,-0.49,0.14,0.28,0.98,1000
16:16:32.550,15.76,-8.16,-237.48,-0.18,-0.24,-0.67,0.15,0.28,0.98,1000
16:16:32.553,15.76,-8.16,-237.48,-0.3,-0.24,-0.55,0.15,0.28,0.98,1000
16:16:32.554,15.76,-8.16,-237.48,-0.18,-0.37,-0.43,0.15,0.28,0.98,1000
16:16:32.569,15.76,-8.16,-237.48,-0.37,-0.18,-0.37,0.15,0.28,0.98,1000
16:16:32.570,15.76,-8.16,-237.48,-0.24,-0.49,-0.55,0.14,0.28,0.98,1000
16:16:32.570,15.76,-8.16,-237.48,-0.18,-0.37,-0.37,0.15,0.28,0.98,1000
16:16:32.570,15.76,-8.16,-237.48,-0.18,-0.24,-0.37,0.15,0.28,0.98,1000
16:16:32.570,15.76,-8.16,-237.49,-0.3,-0.24,-0.43,0.15,0.28,0.98,1000
16:16:32.570,15.76,-8.16,-237.49,-0.24,-0.24,-0.3,0.14,0.28,0.98,1000
16:16:32.570,15.76,-8.16,-237.49,-0.3,-0.3,-0.55,0.14,0.28,0.98,1000
16:16:32.570,15.76,-8.16,-237.49,-0.18,-0.43,-0.55,0.14,0.28,0.98,1000
16:16:32.575,15.76,-8.16,-237.49,-0.24,-0.24,-0.43,0.14,0.28,0.98,1000
16:16:32.575,15.76,-8.16,-237.49,-0.3,-0.18,-0.37,0.14,0.28,0.98,1000
16:16:32.576,15.76,-8.16,-237.49,-0.18,-0.12,-0.49,0.14,0.28,0.98,1000
16:16:32.579,15.76,-8.16,-237.49,-0.12,-0.37,-0.37,0.15,0.28,0.98,1000
16:16:32.580,15.76,-8.16,-237.49,-0.37,-0.18,-0.49,0.15,0.28,0.98,1000
16:16:32.582,15.76,-8.16,-237.49,-0.3,-0.37,-0.55,0.15,0.28,0.98,1000
16:16:32.584,15.76,-8.16,-237.49,-0.24,-0.43,-0.3,0.14,0.28,0.98,1000
16:16:32.586,15.76,-8.16,-237.49,-0.37,-0.24,-0.43,0.14,0.28,0.98,1000
16:16:32.588,15.76,-8.16,-237.49,-0.24,-0.3,-0.43,0.15,0.28,0.98,1000
16:16:32.590,15.76,-8.16,-237.49,-0.18,-0.37,-0.67,0.14,0.28,0.98,1000
16:16:32.592,15.76,-8.16,-237.49,-0.24,-0.3,-0.73,0.15,0.28,0.98,1000
16:16:32.594,15.76,-8.16,-237.5,-0.24,-0.37,-0.43,0.15,0.28,0.98,1000
16:16:32.596,15.76,-8.16,-237.5,-0.24,-0.37,-0.3,0.14,0.28,0.98,1000
16:16:32.598,15.76,-8.16,-237.5,-0.3,-0.3,-0.43,0.14,0.28,0.98,1000
16:16:32.600,15.76,-8.16,-237.5,-0.06,-0.24,-0.37,0.15,0.28,0.98,1000
16:16:32.602,15.76,-8.16,-237.5,-0.18,-0.12,-0.37,0.15,0.28,0.98,1000
16:16:32.606,15.76,-8.16,-237.5,-0.24,-0.24,-0.43,0.15,0.28,0.98,1000
16:16:32.607,15.76,-8.16,-237.5,-0.18,-0.18,-0.3,0.15,0.28,0.98,1000
16:16:32.608,15.76,-8.16,-237.5,-0.18,-0.06,-0.37,0.14,0.28,0.98,1000
16:16:32.610,15.76,-8.16,-237.5,-0.24,-0.18,-0.43,0.14,0.28,0.98,1000
16:16:32.612,15.76,-8.16,-237.5,-0.24,-0.18,-0.37,0.14,0.28,0.98,1000
16:16:32.614,15.76,-8.16,-237.5,-0.12,-0.3,-0.43,0.15,0.28,0.98,1000
16:16:32.616,15.76,-8.16,-237.5,-0.12,-0.3,-0.37,0.14,0.28,0.98,1000
16:16:32.618,15.76,-8.16,-237.5,-0.3,-0.3,-0.49,0.15,0.28,0.98,1000
16:16:32.620,15.76,-8.16,-237.5,-0.18,-0.3,-0.37,0.15,0.28,0.98,1000
16:16:32.624,15.76,-8.16,-237.5,-0.18,-0.3,-0.61,0.15,0.28,0.98,1000
16:16:32.624,15.76,-8.16,-237.51,-0.18,-0.3,-0.37,0.14,0.28,0.98,1000
16:16:32.626,15.76,-8.16,-237.51,-0.24,-0.37,-0.55,0.15,0.28,0.98,1000
16:16:32.628,15.76,-8.16,-237.51,-0.18,-0.18,-0.55,0.14,0.28,0.98,1000
16:16:32.630,15.76,-8.16,-237.51,-0.37,-0.24,-0.49,0.14,0.28,0.98,1000
16:16:32.633,15.76,-8.16,-237.51,-0.3,-0.12,-0.43,0.14,0.28,0.98,1000
16:16:32.634,15.76,-8.16,-237.51,-0.12,-0.37,-0.37,0.15,0.28,0.98,1000
16:16:32.637,15.76,-8.16,-237.51,-0.12,-0.18,-0.61,0.15,0.28,0.98,1000
16:16:32.638,15.76,-8.16,-237.51,-0.37,-0.37,-0.37,0.14,0.28,0.98,1000
16:16:32.640,15.76,-8.16,-237.51,-0.12,-0.24,-0.37,0.14,0.28,0.98,1000
16:16:32.642,15.76,-8.16,-237.51,-0.18,-0.12,-0.43,0.14,0.28,0.98,1000
16:16:32.644,15.76,-8.16,-237.51,-0.18,-0.37,-0.3,0.14,0.28,0.98,1000
16:16:32.646,15.76,-8.16,-237.51,-0.24,-0.37,-0.37,0.14,0.28,0.98,1000
16:16:32.648,15.76,-8.16,-237.51,-0.3,-0.24,-0.43,0.14,0.28,0.98,1000
16:16:32.650,15.76,-8.16,-237.51,-0.24,-0.37,-0.43,0.14,0.28,0.98,1000
16:16:32.652,15.76,-8.16,-237.51,-0.37,-0.24,-0.43,0.15,0.28,0.98,1000
16:16:32.654,15.76,-8.16,-237.51,-0.3,-0.49,-0.37,0.14,0.28,0.98,1000
16:16:32.656,15.76,-8.16,-237.51,-0.24,-0.43,-0.37,0.15,0.28,0.98,1000
16:16:32.673,15.76,-8.16,-237.52,-0.24,-0.43,-0.55,0.15,0.28,0.98,1000
16:16:32.673,15.76,-8.16,-237.52,-0.24,-0.49,-0.43,0.14,0.28,0.98,1000
16:16:32.673,15.76,-8.16,-237.52,-0.24,-0.37,-0.3,0.14,0.28,0.98,1000
16:16:32.673,15.76,-8.16,-237.52,-0.18,-0.37,-0.43,0.14,0.28,0.98,1000
16:16:32.673,15.76,-8.16,-237.52,-0.18,-0.24,-0.43,0.14,0.28,0.98,1000
16:16:32.673,15.76,-8.16,-237.52,-0.24,-0.24,-0.55,0.14,0.28,0.98,1000
16:16:32.673,15.76,-8.16,-237.52,-0.18,-0.3,-0.49,0.15,0.28,0.98,1000
16:16:32.674,15.76,-8.16,-237.52,-0.12,-0.37,-0.37,0.14,0.28,0.98,1000
16:16:32.674,15.76,-8.16,-237.52,-0.18,-0.3,-0.37,0.15,0.28,0.98,1000
16:16:32.676,15.76,-8.16,-237.52,-0.12,-0.24,-0.49,0.14,0.28,0.98,1000
16:16:32.678,15.76,-8.16,-237.52,-0.12,-0.24,-0.37,0.14,0.28,0.98,1000
16:16:32.681,15.76,-8.16,-237.52,-0.18,-0.24,-0.49,0.14,0.28,0.98,1000
16:16:32.682,15.76,-8.16,-237.52,-0.24,-0.24,-0.43,0.15,0.28,0.98,1000
16:16:32.684,15.76,-8.16,-237.52,-0.3,-0.3,-0.49,0.15,0.28,0.98,1000
16:16:32.686,15.76,-8.16,-237.52,-0.18,-0.37,-0.49,0.15,0.28,0.98,1000
16:16:32.688,15.76,-8.16,-237.52,-0.18,-0.24,-0.49,0.15,0.28,0.98,1000
16:16:32.691,15.76,-8.16,-237.53,-0.3,-0.37,-0.49,0.15,0.28,0.98,1000
16:16:32.692,15.76,-8.16,-237.53,-0.24,-0.3,-0.37,0.14,0.28,0.98,1000
16:16:32.694,15.76,-8.16,-237.53,-0.18,-0.3,-0.43,0.14,0.28,0.98,1000
16:16:32.696,15.76,-8.16,-237.53,-0.18,-0.37,-0.49,0.14,0.28,0.98,1000
16:16:32.698,15.76,-8.16,-237.53,-0.3,-0.37,-0.61,0.14,0.28,0.98,1000
16:16:32.700,15.76,-8.16,-237.53,-0.18,-0.3,-0.37,0.15,0.28,0.98,1000
16:16:32.702,15.76,-8.16,-237.53,-0.3,-0.3,-0.37,0.14,0.28,0.98,1000
16:16:32.704,15.76,-8.16,-237.53,-0.18,-0.3,-0.3,0.14,0.28,0.98,1000
16:16:32.707,15.76,-8.16,-237.53,-0.24,-0.18,-0.37,0.14,0.28,0.98,1000
16:16:32.708,15.76,-8.16,-237.53,-0.37,-0.3,-0.3,0.15,0.28,0.98,1000
16:16:32.710,15.76,-8.16,-237.53,-0.24,-0.37,-0.37,0.15,0.28,0.98,1000
16:16:32.712,15.76,-8.16,-237.53,-0.3,-0.24,-0.37,0.15,0.28,0.98,1000
16:16:32.714,15.76,-8.16,-237.53,-0.18,-0.37,-0.37,0.15,0.28,0.98,1000
16:16:32.718,15.76,-8.16,-237.53,-0.18,-0.37,-0.3,0.14,0.28,0.98,1000
16:16:32.718,15.76,-8.16,-237.53,-0.12,-0.18,-0.49,0.14,0.28,0.98,1000
16:16:32.720,15.76,-8.16,-237.53,-0.12,-0.3,-0.49,0.15,0.28,0.98,1000
16:16:32.722,15.76,-8.16,-237.54,-0.18,-0.3,-0.3,0.14,0.28,0.98,1000
16:16:32.724,15.76,-8.16,-237.54,-0.24,-0.3,-0.37,0.14,0.28,0.98,1000
16:16:32.726,15.76,-8.16,-237.54,-0.18,-0.18,-0.37,0.15,0.28,0.98,1000
16:16:32.728,15.76,-8.16,-237.54,-0.3,-0.3,-0.37,0.15,0.28,0.98,1000
16:16:32.730,15.76,-8.16,-237.54,-0.18,-0.3,-0.61,0.14,0.28,0.98,1000
16:16:32.732,15.76,-8.16,-237.54,-0.24,-0.3,-0.37,0.14,0.28,0.98,1000
16:16:32.736,15.76,-8.16,-237.54,-0.3,-0.37,-0.37,0.14,0.28,0.98,1000
16:16:32.736,15.76,-8.16,-237.54,-0.18,-0.37,-0.24,0.15,0.28,0.98,1000
16:16:32.738,15.76,-8.16,-237.54,-0.18,-0.18,-0.49,0.15,0.28,0.98,1000
16:16:32.741,15.76,-8.16,-237.54,-0.18,-0.37,-0.43,0.15,0.28,0.98,1000
16:16:32.742,15.76,-8.16,-237.54,-0.24,-0.37,-0.43,0.14,0.28,0.98,1000
16:16:32.744,15.76,-8.16,-237.54,-0.24,-0.43,-0.37,0.14,0.28,0.98,1000
16:16:32.746,15.76,-8.16,-237.54,-0.24,-0.37,-0.49,0.14,0.28,0.98,1000
16:16:32.748,15.76,-8.16,-237.54,-0.3,-0.24,-0.55,0.14,0.28,0.98,1000
16:16:32.750,15.76,-8.16,-237.54,-0.3,-0.3,-0.37,0.15,0.28,0.98,1000
16:16:32.752,15.76,-8.16,-237.54,-0.24,-0.37,-0.37,0.15,0.28,0.98,1000
16:16:32.754,15.76,-8.16,-237.55,-0.18,-0.37,-0.43,0.15,0.28,0.98,1000
16:16:32.756,15.76,-8.16,-237.55,-0.18,-0.37,-0.49,0.14,0.28,0.98,1000
16:16:32.758,15.76,-8.16,-237.55,-0.12,-0.3,-0.43,0.14,0.28,0.98,1000
16:16:32.775,15.76,-8.16,-237.55,-0.24,-0.3,-0.43,0.14,0.28,0.98,1000
16:16:32.775,15.76,-8.16,-237.55,-0.24,-0.18,-0.37,0.15,0.28,0.98,1000
16:16:32.775,15.76,-8.16,-237.55,-0.24,-0.18,-0.18,0.15,0.28,0.98,1000
16:16:32.775,15.76,-8.16,-237.55,-0.18,-0.24,-0.43,0.14,0.28,0.98,1000
16:16:32.775,15.76,-8.16,-237.55,-0.24,-0.24,-0.37,0.14,0.28,0.98,1000
16:16:32.775,15.76,-8.16,-237.55,-0.3,-0.3,-0.43,0.14,0.28,0.98,1000
16:16:32.775,15.76,-8.16,-237.55,-0.3,-0.24,-0.49,0.14,0.28,0.98,1000
16:16:32.776,15.76,-8.16,-237.55,0.0,-0.18,-0.55,0.14,0.28,0.98,1000
16:16:32.777,15.76,-8.16,-237.55,-0.18,-0.24,-0.61,0.15,0.28,0.98,1000
16:16:32.778,15.76,-8.16,-237.55,-0.12,-0.18,-0.49,0.14,0.28,0.98,1000
16:16:32.780,15.76,-8.16,-237.55,-0.12,-0.18,-0.43,0.14,0.28,0.98,1000
16:16:32.782,15.76,-8.16,-237.55,-0.24,-0.3,-0.37,0.14,0.28,0.98,1000
16:16:32.784,15.76,-8.16,-237.55,-0.3,-0.3,-0.43,0.15,0.28,0.98,1000
16:16:32.786,15.76,-8.16,-237.56,-0.3,-0.3,-0.43,0.14,0.28,0.98,1000
16:16:32.788,15.76,-8.16,-237.56,-0.3,-0.24,-0.37,0.14,0.28,0.98,1000
16:16:32.793,15.76,-8.16,-237.56,-0.37,-0.24,-0.37,0.14,0.28,0.98,1000
16:16:32.793,15.76,-8.16,-237.56,-0.3,-0.24,-0.37,0.15,0.28,0.98,1000
16:16:32.795,15.76,-8.16,-237.56,-0.24,-0.3,-0.49,0.15,0.28,0.98,1000
16:16:32.797,15.76,-8.16,-237.56,-0.37,-0.3,-0.43,0.14,0.28,0.98,1000
16:16:32.799,15.76,-8.16,-237.56,-0.24,-0.24,-0.43,0.14,0.28,0.98,1000
16:16:32.800,15.76,-8.16,-237.56,-0.18,-0.18,-0.49,0.15,0.28,0.98,1000
16:16:32.804,15.76,-8.16,-237.56,-0.18,-0.37,-0.67,0.15,0.28,0.98,1000
16:16:32.808,15.76,-8.16,-237.56,-0.3,-0.43,-0.49,0.15,0.28,0.98,1000
16:16:32.808,15.76,-8.16,-237.56,-0.37,-0.37,-0.55,0.14,0.28,0.98,1000
16:16:32.808,15.76,-8.16,-237.56,-0.3,-0.3,-0.37,0.14,0.28,0.98,1000
16:16:32.810,15.76,-8.16,-237.56,-0.37,-0.18,-0.37,0.14,0.28,0.98,1000
16:16:32.812,15.76,-8.16,-237.56,-0.3,-0.37,-0.55,0.15,0.28,0.98,1000
16:16:32.814,15.76,-8.16,-237.56,-0.37,-0.24,-0.37,0.14,0.28,0.98,1000
16:16:32.816,15.76,-8.16,-237.56,-0.3,-0.3,-0.37,0.14,0.28,0.98,1000
16:16:32.818,15.76,-8.16,-237.57,-0.18,-0.37,-0.43,0.15,0.28,0.98,1000
16:16:32.820,15.76,-8.16,-237.57,-0.24,-0.43,-0.43,0.15,0.28,0.98,1000
16:16:32.822,15.76,-8.16,-237.57,-0.37,-0.37,-0.55,0.15,0.28,0.98,1000
16:16:32.824,15.76,-8.16,-237.57,-0.18,-0.37,-0.43,0.14,0.28,0.98,1000
16:16:32.827,15.76,-8.16,-237.57,-0.06,-0.18,-0.3,0.14,0.28,0.98,1000
16:16:32.828,15.76,-8.16,-237.57,-0.18,-0.3,-0.37,0.15,0.28,0.98,1000
16:16:32.830,15.76,-8.16,-237.57,-0.24,-0.3,-0.37,0.15,0.28,0.98,1000
16:16:32.832,15.76,-8.16,-237.57,-0.24,-0.24,-0.37,0.14,0.28,0.98,1000
16:16:32.834,15.76,-8.16,-237.57,-0.18,-0.12,-0.49,0.14,0.28,0.98,1000
16:16:32.838,15.76,-8.16,-237.57,-0.18,-0.18,-0.61,0.14,0.28,0.98,1000
16:16:32.838,15.76,-8.16,-237.57,-0.37,-0.37,-0.67,0.14,0.28,0.98,1000
16:16:32.840,15.76,-8.16,-237.57,-0.18,-0.12,-0.55,0.15,0.28,0.98,1000
16:16:32.843,15.76,-8.16,-237.57,-0.18,-0.37,-0.49,0.14,0.28,0.98,1000
16:16:32.844,15.76,-8.16,-237.57,-0.18,-0.18,-0.43,0.14,0.28,0.98,1000
16:16:32.846,15.76,-8.16,-237.57,-0.24,-0.24,-0.37,0.15,0.28,0.98,1000
16:16:32.848,15.76,-8.16,-237.58,-0.18,-0.24,-0.37,0.14,0.28,0.98,1000
16:16:32.850,15.76,-8.16,-237.58,-0.12,0.0,-0.43,0.15,0.28,0.98,1000
16:16:32.852,15.76,-8.16,-237.58,-0.18,-0.3,-0.43,0.14,0.28,0.98,1000
16:16:32.854,15.76,-8.16,-237.58,-0.18,-0.3,-0.67,0.14,0.28,0.98,1000
16:16:32.856,15.76,-8.16,-237.58,-0.3,-0.37,-0.37,0.14,0.28,0.98,1000
16:16:32.858,15.76,-8.16,-237.58,-0.18,-0.12,-0.37,0.14,0.28,0.98,1000
16:16:32.861,15.76,-8.16,-237.58,-0.24,-0.37,-0.3,0.14,0.28,0.98,1000
16:16:32.862,15.76,-8.15,-237.58,-0.18,-0.37,-0.49,0.14,0.28,0.98,1000
16:16:32.878,15.76,-8.15,-237.58,-0.3,-0.3,-0.37,0.14,0.28,0.98,1000
16:16:32.878,15.76,-8.15,-237.58,-0.18,-0.3,-0.49,0.14,0.28,0.98,1000
16:16:32.878,15.76,-8.15,-237.58,-0.3,-0.3,-0.43,0.14,0.28,0.98,1000
16:16:32.878,15.76,-8.15,-237.58,-0.43,-0.3,-0.43,0.14,0.28,0.98,1000
16:16:32.878,15.76,-8.15,-237.58,-0.3,-0.37,-0.49,0.15,0.28,0.98,1000
16:16:32.878,15.76,-8.15,-237.58,-0.12,-0.18,-0.43,0.14,0.28,0.98,1000
16:16:32.878,15.76,-8.15,-237.58,-0.18,-0.37,-0.49,0.14,0.28,0.98,1000
16:16:32.878,15.76,-8.15,-237.58,-0.24,-0.37,-0.43,0.15,0.28,0.98,1000
16:16:32.880,15.76,-8.15,-237.59,-0.24,-0.24,-0.43,0.15,0.28,0.98,1000
16:16:32.883,15.76,-8.15,-237.59,-0.18,-0.3,-0.55,0.15,0.28,0.98,1000
16:16:32.887,15.76,-8.15,-237.59,-0.24,-0.37,-0.37,0.15,0.28,0.98,1000
16:16:32.887,15.76,-8.15,-237.59,-0.3,-0.37,-0.43,0.14,0.28,0.98,1000
16:16:32.888,15.76,-8.15,-237.59,-0.37,-0.3,-0.37,0.14,0.28,0.98,1000
16:16:32.890,15.75,-8.15,-237.59,-0.43,-0.3,-0.43,0.15,0.28,0.98,1000
16:16:32.893,15.75,-8.15,-237.59,-0.24,-0.3,-0.24,0.15,0.28,0.98,1000
16:16:32.895,15.75,-8.15,-237.59,-0.3,-0.12,-0.37,0.15,0.28,0.98,1000
16:16:32.897,15.75,-8.15,-237.59,-0.3,-0.12,-0.37,0.15,0.28,0.98,1000
16:16:32.900,15.75,-8.15,-237.59,-0.18,-0.43,-0.37,0.14,0.28,0.98,1000
16:16:32.903,15.75,-8.15,-237.59,-0.18,-0.24,-0.37,0.14,0.28,0.98,1000
16:16:32.904,15.75,-8.15,-237.59,-0.18,-0.3,-0.37,0.15,0.28,0.98,1000
16:16:32.905,15.75,-8.15,-237.59,-0.24,-0.37,-0.37,0.15,0.28,0.98,1000
16:16:32.907,15.75,-8.15,-237.59,-0.18,-0.3,-0.3,0.15,0.28,0.98,1000
16:16:32.909,15.75,-8.15,-237.59,-0.24,-0.3,-0.49,0.15,0.28,0.98,1000
16:16:32.912,15.75,-8.16,-237.6,-0.18,-0.24,-0.37,0.14,0.28,0.98,1000
16:16:32.913,15.75,-8.16,-237.6,-0.12,-0.3,-0.43,0.14,0.28,0.98,1000
16:16:32.915,15.75,-8.16,-237.6,-0.18,-0.37,-0.55,0.15,0.28,0.98,1000
16:16:32.917,15.75,-8.16,-237.6,-0.24,-0.24,-0.55,0.15,0.28,0.98,1000
16:16:32.919,15.75,-8.16,-237.6,-0.3,-0.24,-0.49,0.14,0.28,0.98,1000
16:16:32.921,15.75,-8.16,-237.6,-0.24,-0.37,-0.43,0.14,0.28,0.98,1000
16:16:32.923,15.76,-8.16,-237.6,-0.18,-0.3,-0.61,0.14,0.28,0.98,1000
16:16:32.926,15.76,-8.16,-237.6,-0.06,-0.18,-0.37,0.15,0.28,0.98,1000
16:16:32.927,15.76,-8.16,-237.6,-0.18,-0.18,-0.43,0.14,0.28,0.98,1000
16:16:32.929,15.76,-8.16,-237.6,-0.18,-0.18,-0.61,0.14,0.28,0.98,1000
16:16:32.932,15.76,-8.16,-237.6,-0.24,-0.24,-0.37,0.14,0.28,0.98,1000
16:16:32.933,15.76,-8.16,-237.6,-0.18,-0.12,-0.43,0.14,0.28,0.98,1000
16:16:32.935,15.76,-8.16,-237.6,-0.12,-0.24,-0.67,0.15,0.28,0.98,1000
16:16:32.937,15.76,-8.16,-237.6,-0.18,-0.3,-0.55,0.14,0.28,0.98,1000
16:16:32.940,15.76,-8.16,-237.61,-0.18,-0.24,-0.43,0.14,0.28,0.98,1000
16:16:32.941,15.76,-8.15,-237.61,-0.18,-0.24,-0.37,0.15,0.28,0.98,1000
16:16:32.945,15.76,-8.16,-237.61,-0.24,-0.37,-0.37,0.15,0.28,0.98,1000
16:16:32.945,15.76,-8.16,-237.61,-0.18,-0.3,-0.49,0.14,0.28,0.98,1000
16:16:32.947,15.76,-8.16,-237.61,-0.3,-0.43,-0.24,0.15,0.28,0.98,1000
16:16:32.949,15.76,-8.16,-237.61,-0.3,-0.37,-0.55,0.14,0.28,0.98,1000
16:16:32.951,15.76,-8.16,-237.61,-0.18,-0.3,-0.37,0.14,0.28,0.98,1000
16:16:32.953,15.76,-8.16,-237.61,-0.18,-0.18,-0.37,0.14,0.28,0.98,1000
16:16:32.955,15.76,-8.16,-237.61,-0.24,-0.3,-0.37,0.14,0.28,0.98,1000
16:16:32.957,15.76,-8.16,-237.61,-0.24,-0.24,-0.43,0.14,0.28,0.98,1000
16:16:32.959,15.76,-8.15,-237.61,-0.18,-0.18,-0.43,0.14,0.28,0.98,1000
16:16:32.961,15.76,-8.15,-237.61,-0.49,-0.37,-0.55,0.14,0.28,0.98,1000
16:16:32.963,15.76,-8.15,-237.61,-0.24,-0.3,-0.43,0.14,0.28,0.98,1000
16:16:32.965,15.76,-8.15,-237.61,-0.37,-0.37,-0.37,0.14,0.28,0.98,1000
16:16:32.977,15.76,-8.15,-237.61,-0.24,-0.3,-0.43,0.14,0.28,0.98,1000
16:16:32.980,15.76,-8.15,-237.61,-0.18,-0.55,-0.55,0.14,0.28,0.98,1000
16:16:32.980,15.76,-8.15,-237.61,-0.18,-0.3,-0.43,0.14,0.28,0.98,1000
16:16:32.980,15.76,-8.15,-237.62,-0.3,-0.43,-0.24,0.14,0.28,0.98,1000
16:16:32.980,15.76,-8.15,-237.62,-0.37,-0.37,-0.37,0.15,0.28,0.98,1000
16:16:32.980,15.75,-8.15,-237.62,-0.37,-0.18,-0.37,0.15,0.28,0.98,1000
16:16:32.981,15.75,-8.15,-237.62,-0.37,-0.18,-0.43,0.15,0.28,0.98,1000
16:16:32.982,15.75,-8.15,-237.62,-0.3,-0.24,-0.37,0.15,0.28,0.98,1000
16:16:32.984,15.75,-8.15,-237.62,-0.24,-0.49,-0.37,0.14,0.28,0.98,1000
16:16:32.986,15.75,-8.15,-237.62,-0.37,-0.37,-0.49,0.14,0.28,0.98,1000
16:16:32.988,15.75,-8.15,-237.62,-0.3,-0.37,-0.49,0.15,0.28,0.98,1000
16:16:32.990,15.75,-8.15,-237.62,-0.37,-0.37,-0.37,0.14,0.28,0.98,1000
16:16:32.991,15.75,-8.15,-237.62,-0.3,-0.3,-0.37,0.14,0.28,0.98,1000
16:16:32.993,15.75,-8.15,-237.62,-0.06,-0.43,-0.37,0.14,0.28,0.98,1000
16:16:32.995,15.75,-8.15,-237.62,-0.24,-0.24,-0.43,0.14,0.28,0.98,1000
16:16:32.997,15.75,-8.15,-237.62,-0.18,-0.18,-0.79,0.15,0.28,0.98,1000
16:16:33.000,15.75,-8.15,-237.62,-0.3,-0.37,-0.37,0.15,0.28,0.98,1000
16:16:33.001,15.75,-8.15,-237.63,-0.24,-0.18,-0.37,0.14,0.28,0.98,1000
16:16:33.003,15.75,-8.15,-237.63,-0.3,-0.24,-0.37,0.15,0.28,0.98,1000
16:16:33.007,15.75,-8.15,-237.63,-0.3,-0.24,-0.49,0.15,0.28,0.98,1000
16:16:33.007,15.75,-8.15,-237.63,-0.12,-0.24,-0.37,0.14,0.28,0.98,1000
16:16:33.009,15.75,-8.15,-237.63,-0.3,-0.18,-0.43,0.15,0.28,0.98,1000
16:16:33.011,15.75,-8.15,-237.63,-0.18,-0.18,-0.37,0.15,0.28,0.98,1000
16:16:33.015,15.75,-8.15,-237.63,-0.24,-0.24,-0.3,0.14,0.28,0.98,1000
16:16:33.015,15.75,-8.15,-237.63,-0.18,-0.3,-0.37,0.14,0.28,0.98,1000
16:16:33.017,15.75,-8.15,-237.63,-0.12,-0.24,-0.49,0.15,0.28,0.98,1000
16:16:33.019,15.75,-8.15,-237.63,-0.24,-0.43,-0.49,0.14,0.28,0.98,1000
16:16:33.021,15.75,-8.15,-237.63,-0.24,-0.3,-0.55,0.15,0.28,0.98,1000
16:16:33.023,15.75,-8.15,-237.63,-0.18,-0.24,-0.49,0.14,0.28,0.98,1000
16:16:33.025,15.75,-8.15,-237.63,-0.24,-0.37,-0.43,0.14,0.28,0.98,1000
16:16:33.027,15.75,-8.15,-237.63,-0.18,-0.37,-0.37,0.15,0.28,0.98,1000
16:16:33.029,15.75,-8.15,-237.63,-0.3,-0.3,-0.49,0.14,0.28,0.98,1000
16:16:33.031,15.75,-8.15,-237.63,-0.24,-0.37,-0.61,0.14,0.28,0.98,1000
16:16:33.033,15.75,-8.15,-237.63,-0.24,-0.3,-0.37,0.15,0.28,0.98,1000
16:16:33.035,15.75,-8.15,-237.63,-0.3,-0.43,-0.37,0.15,0.28,0.98,1000
16:16:33.037,15.75,-8.15,-237.63,-0.12,-0.3,-0.37,0.14,0.28,0.98,1000
16:16:33.039,15.75,-8.15,-237.64,-0.24,-0.3,-0.55,0.14,0.28,0.98,1000
16:16:33.043,15.75,-8.15,-237.64,-0.24,-0.24,-0.49,0.14,0.28,0.98,1000
16:16:33.043,15.75,-8.15,-237.64,-0.3,-0.37,-0.49,0.14,0.28,0.98,1000
16:16:33.045,15.75,-8.15,-237.64,-0.3,-0.24,-0.49,0.15,0.28,0.98,1000
16:16:33.049,15.75,-8.15,-237.64,-0.3,-0.3,-0.37,0.15,0.28,0.98,1000
16:16:33.049,15.75,-8.15,-237.64,-0.3,-0.3,-0.37,0.14,0.28,0.98,1000
16:16:33.051,15.75,-8.15,-237.64,-0.37,-0.24,-0.37,0.14,0.28,0.98,1000
16:16:33.053,15.75,-8.15,-237.64,-0.18,-0.24,-0.43,0.14,0.28,0.98,1000
16:16:33.055,15.75,-8.15,-237.64,-0.3,-0.43,-0.55,0.14,0.28,0.98,1000
16:16:33.057,15.75,-8.15,-237.64,-0.24,-0.37,-0.43,0.14,0.28,0.98,1000
16:16:33.059,15.75,-8.15,-237.64,-0.3,-0.3,-0.43,0.14,0.28,0.98,1000
16:16:33.061,15.75,-8.15,-237.64,-0.12,-0.37,-0.37,0.15,0.28,0.98,1000
16:16:33.063,15.75,-8.15,-237.64,-0.06,-0.24,-0.37,0.14,0.28,0.98,1000
16:16:33.065,15.75,-8.15,-237.64,-0.24,-0.24,-0.49,0.14,0.28,0.98,1000
16:16:33.082,15.75,-8.15,-237.64,-0.3,-0.24,-0.55,0.14,0.28,0.98,1000
16:16:33.082,15.75,-8.15,-237.64,-0.24,-0.3,-0.37,0.14,0.28,0.98,1000
16:16:33.082,15.75,-8.15,-237.64,-0.24,-0.18,-0.37,0.14,0.28,0.98,1000
16:16:33.082,15.75,-8.15,-237.65,-0.37,-0.3,-0.43,0.15,0.28,0.98,1000
16:16:33.082,15.75,-8.15,-237.65,-0.18,-0.3,-0.43,0.14,0.28,0.98,1000
16:16:33.082,15.75,-8.15,-237.65,-0.3,-0.3,-0.49,0.14,0.28,0.98,1000
16:16:33.082,15.75,-8.15,-237.65,-0.06,-0.37,-0.37,0.14,0.28,0.98,1000
16:16:33.082,15.75,-8.15,-237.65,-0.06,-0.24,-0.43,0.14,0.28,0.98,1000
16:16:33.084,15.75,-8.15,-237.65,-0.24,-0.24,-0.37,0.15,0.28,0.98,1000
16:16:33.085,15.75,-8.15,-237.65,-0.24,-0.18,-0.3,0.15,0.28,0.98,1000
16:16:33.087,15.75,-8.15,-237.65,-0.06,-0.12,-0.37,0.14,0.28,0.98,1000
16:16:33.091,15.75,-8.15,-237.65,-0.3,-0.3,-0.43,0.14,0.28,0.98,1000
16:16:33.091,15.75,-8.15,-237.65,-0.24,-0.3,-0.43,0.15,0.28,0.98,1000
16:16:33.093,15.75,-8.15,-237.65,-0.18,-0.18,-0.43,0.15,0.28,0.98,1000
16:16:33.095,15.75,-8.15,-237.65,-0.12,-0.18,-0.43,0.14,0.28,0.98,1000
16:16:33.097,15.75,-8.15,-237.65,-0.18,-0.24,-0.49,0.14,0.28,0.98,1000
16:16:33.099,15.75,-8.15,-237.65,-0.37,-0.24,-0.49,0.14,0.28,0.98,1000
16:16:33.101,15.75,-8.15,-237.65,-0.18,-0.12,-0.37,0.14,0.28,0.98,1000
16:16:33.104,15.75,-8.15,-237.65,-0.3,-0.37,-0.37,0.14,0.28,0.98,1000
16:16:33.105,15.75,-8.15,-237.66,-0.3,-0.37,-0.24,0.15,0.28,0.98,1000
16:16:33.107,15.75,-8.15,-237.66,-0.24,-0.37,-0.43,0.15,0.28,0.98,1000
16:16:33.109,15.75,-8.15,-237.66,-0.3,-0.24,-0.67,0.14,0.28,0.98,1000
16:16:33.111,15.75,-8.15,-237.66,-0.37,-0.18,-0.61,0.14,0.28,0.98,1000
16:16:33.113,15.75,-8.15,-237.66,-0.18,-0.37,-0.55,0.14,0.28,0.98,1000
16:16:33.116,15.75,-8.15,-237.66,-0.24,-0.3,-0.37,0.14,0.28,0.98,1000
16:16:33.117,15.75,-8.15,-237.66,-0.24,-0.37,-0.37,0.14,0.28,0.98,1000
16:16:33.119,15.75,-8.15,-237.66,-0.18,-0.12,-0.3,0.14,0.28,0.98,1000
16:16:33.121,15.75,-8.15,-237.66,-0.18,-0.37,-0.37,0.14,0.28,0.98,1000
16:16:33.123,15.75,-8.15,-237.66,-0.37,-0.3,-0.18,0.14,0.28,0.98,1000
16:16:33.125,15.75,-8.15,-237.66,-0.18,-0.3,-0.37,0.14,0.28,0.98,1000
16:16:33.127,15.75,-8.15,-237.66,-0.24,-0.3,-0.37,0.14,0.28,0.98,1000
16:16:33.129,15.75,-8.15,-237.66,-0.37,-0.37,-0.37,0.14,0.28,0.98,1000
16:16:33.131,15.75,-8.15,-237.66,-0.24,-0.24,-0.3,0.14,0.28,0.98,1000
16:16:33.134,15.75,-8.15,-237.66,-0.24,-0.37,-0.37,0.15,0.28,0.98,1000
16:16:33.135,15.75,-8.15,-237.66,-0.24,-0.3,-0.37,0.14,0.28,0.98,1000
16:16:33.137,15.75,-8.15,-237.66,-0.24,-0.3,-0.43,0.15,0.28,0.98,1000
16:16:33.139,15.75,-8.15,-237.66,-0.3,-0.18,-0.37,0.15,0.28,0.98,1000
16:16:33.141,15.75,-8.15,-237.66,-0.3,-0.12,-0.43,0.15,0.28,0.98,1000
16:16:33.145,15.75,-8.15,-237.67,-0.3,-0.3,-0.55,0.15,0.28,0.98,1000
16:16:33.146,15.75,-8.15,-237.67,-0.24,-0.37,-0.37,0.15,0.28,0.98,1000
16:16:33.147,15.75,-8.15,-237.67,-0.18,-0.37,-0.49,0.14,0.28,0.98,1000
16:16:33.150,15.75,-8.15,-237.67,-0.12,-0.24,-0.55,0.14,0.28,0.98,1000
16:16:33.151,15.75,-8.15,-237.67,-0.18,-0.37,-0.37,0.14,0.28,0.98,1000
16:16:33.153,15.75,-8.15,-237.67,-0.18,-0.37,-0.3,0.15,0.28,0.98,1000
16:16:33.155,15.75,-8.15,-237.67,-0.18,-0.24,-0.49,0.15,0.28,0.98,1000
16:16:33.158,15.75,-8.15,-237.67,-0.18,-0.24,-0.43,0.15,0.28,0.98,1000
16:16:33.159,15.75,-8.15,-237.67,-0.06,-0.18,-0.37,0.15,0.28,0.98,1000
16:16:33.161,15.75,-8.15,-237.67,-0.12,-0.24,-0.49,0.14,0.28,0.98,1000
16:16:33.163,15.75,-8.15,-237.67,-0.18,-0.24,-0.37,0.14,0.28,0.98,1000
16:16:33.165,15.75,-8.15,-237.67,-0.37,-0.3,-0.67,0.14,0.28,0.98,1000
16:16:33.167,15.75,-8.15,-237.67,-0.18,-0.3,-0.55,0.14,0.28,0.98,1000
16:16:33.170,15.75,-8.15,-237.67,-0.12,-0.24,-0.37,0.15,0.28,0.98,1000
16:16:33.182,15.75,-8.15,-237.68,-0.24,-0.18,-0.43,0.15,0.28,0.98,1000
16:16:33.185,15.75,-8.15,-237.68,-0.24,-0.24,-0.37,0.14,0.28,0.98,1000
16:16:33.185,15.75,-8.15,-237.68,-0.24,-0.37,-0.37,0.14,0.28,0.98,1000
16:16:33.185,15.75,-8.15,-237.68,-0.12,-0.3,-0.37,0.15,0.28,0.98,1000
16:16:33.185,15.75,-8.15,-237.68,-0.18,-0.24,-0.43,0.15,0.28,0.98,1000
16:16:33.185,15.75,-8.15,-237.68,-0.3,-0.37,-0.43,0.14,0.28,0.98,1000
16:16:33.186,15.75,-8.15,-237.68,-0.3,-0.43,-0.43,0.14,0.28,0.98,1000
16:16:33.187,15.75,-8.15,-237.68,-0.12,-0.3,-0.49,0.14,0.28,0.98,1000
16:16:33.189,15.75,-8.15,-237.68,-0.3,-0.18,-0.37,0.14,0.28,0.98,1000
16:16:33.193,15.75,-8.15,-237.68,-0.37,-0.3,-0.43,0.14,0.28,0.98,1000
16:16:33.194,15.75,-8.15,-237.68,-0.37,-0.24,-0.37,0.14,0.28,0.98,1000
16:16:33.194,15.75,-8.15,-237.68,-0.3,-0.43,-0.37,0.14,0.28,0.98,1000
16:16:33.197,15.75,-8.15,-237.68,-0.24,-0.37,-0.43,0.15,0.28,0.98,1000
16:16:33.199,15.75,-8.14,-237.68,-0.24,-0.24,-0.49,0.15,0.28,0.98,1000
16:16:33.201,15.75,-8.14,-237.69,-0.24,-0.18,-0.49,0.14,0.28,0.98,1000
16:16:33.202,15.75,-8.14,-237.69,-0.24,-0.3,-0.49,0.14,0.28,0.98,1000
16:16:33.203,15.75,-8.14,-237.69,-0.12,-0.37,-0.37,0.14,0.28,0.98,1000
16:16:33.206,15.75,-8.15,-237.69,-0.3,-0.37,-0.37,0.15,0.28,0.98,1000
16:16:33.207,15.75,-8.14,-237.69,-0.18,-0.3,-0.37,0.14,0.28,0.98,1000
16:16:33.211,15.75,-8.15,-237.69,-0.24,-0.37,-0.37,0.14,0.28,0.98,1000
16:16:33.211,15.75,-8.15,-237.69,-0.12,-0.3,-0.49,0.14,0.28,0.98,1000
16:16:33.213,15.75,-8.14,-237.69,-0.18,-0.43,-0.43,0.14,0.28,0.98,1000
16:16:33.215,15.75,-8.15,-237.69,-0.12,-0.37,-0.61,0.15,0.28,0.98,1000
16:16:33.218,15.75,-8.15,-237.69,-0.37,-0.37,-0.49,0.14,0.28,0.98,1000
16:16:33.219,15.75,-8.14,-237.69,-0.18,-0.18,-0.49,0.14,0.28,0.98,1000
16:16:33.221,15.75,-8.14,-237.7,-0.37,-0.3,-0.49,0.14,0.28,0.98,1000
16:16:33.223,15.75,-8.15,-237.7,-0.18,-0.43,-0.24,0.14,0.28,0.98,1000
16:16:33.225,15.75,-8.14,-237.7,-0.18,-0.18,-0.37,0.14,0.28,0.98,1000
16:16:33.227,15.75,-8.14,-237.7,-0.24,-0.3,-0.43,0.14,0.28,0.98,1000
16:16:33.229,15.75,-8.14,-237.7,-0.3,-0.24,-0.55,0.15,0.28,0.98,1000
16:16:33.231,15.75,-8.14,-237.7,-0.18,-0.24,-0.73,0.14,0.28,0.98,1000
16:16:33.233,15.75,-8.14,-237.7,-0.18,-0.43,-0.55,0.14,0.28,0.98,1000
16:16:33.236,15.75,-8.14,-237.7,-0.18,-0.18,-0.49,0.14,0.28,0.98,1000
16:16:33.237,15.75,-8.14,-237.7,-0.3,-0.37,-0.43,0.15,0.28,0.98,1000
16:16:33.239,15.75,-8.14,-237.7,-0.3,-0.3,-0.43,0.14,0.28,0.98,1000
16:16:33.241,15.75,-8.14,-237.7,-0.24,-0.24,-0.43,0.15,0.28,0.98,1000
16:16:33.243,15.75,-8.14,-237.7,-0.3,-0.24,-0.49,0.15,0.28,0.98,1000
16:16:33.245,15.75,-8.14,-237.7,-0.37,-0.24,-0.43,0.14,0.28,0.98,1000
16:16:33.247,15.75,-8.14,-237.7,-0.3,-0.18,-0.37,0.14,0.28,0.98,1000
16:16:33.254,15.75,-8.14,-237.7,-0.3,-0.18,-0.37,0.15,0.28,0.98,1000
16:16:33.254,15.75,-8.14,-237.71,-0.18,-0.24,-0.37,0.15,0.28,0.98,1000
16:16:33.255,15.75,-8.14,-237.71,-0.18,-0.37,-0.37,0.15,0.28,0.98,1000
16:16:33.256,15.75,-8.14,-237.71,-0.18,-0.24,-0.37,0.15,0.28,0.98,1000
16:16:33.257,15.75,-8.14,-237.71,-0.3,-0.3,-0.37,0.15,0.28,0.98,1000
16:16:33.260,15.75,-8.14,-237.71,-0.3,-0.18,-0.43,0.14,0.28,0.98,1000
16:16:33.261,15.75,-8.14,-237.71,-0.24,-0.18,-0.37,0.15,0.28,0.98,1000
16:16:33.263,15.75,-8.14,-237.71,-0.24,-0.49,-0.61,0.14,0.28,0.98,1000
16:16:33.265,15.75,-8.14,-237.71,-0.18,-0.18,-0.61,0.14,0.28,0.98,1000
16:16:33.267,15.75,-8.14,-237.71,-0.3,-0.18,-0.49,0.14,0.28,0.98,1000
16:16:33.269,15.75,-8.14,-237.71,-0.18,-0.3,-0.49,0.14,0.28,0.98,1000
16:16:33.271,15.75,-8.14,-237.71,-0.18,-0.37,-0.55,0.15,0.28,0.98,1000
16:16:33.279,15.75,-8.14,-237.71,-0.3,-0.18,-0.49,0.15,0.28,0.98,1000
16:16:33.291,15.75,-8.14,-237.71,-0.37,-0.24,-0.37,0.15,0.28,0.98,1000
16:16:33.291,15.75,-8.14,-237.71,-0.18,-0.3,-0.43,0.14,0.28,0.98,1000
16:16:33.291,15.75,-8.14,-237.71,-0.12,-0.24,-0.37,0.15,0.28,0.98,1000
16:16:33.291,15.75,-8.14,-237.72,-0.3,-0.24,-0.55,0.14,0.28,0.98,1000
16:16:33.291,15.75,-8.14,-237.72,-0.24,-0.37,-0.18,0.14,0.28,0.98,1000
16:16:33.291,15.75,-8.14,-237.72,-0.3,-0.37,-0.24,0.14,0.28,0.98,1000
16:16:33.291,15.75,-8.15,-237.72,-0.18,-0.43,-0.37,0.14,0.28,0.98,1000
16:16:33.291,15.75,-8.15,-237.72,-0.18,-0.43,-0.37,0.14,0.28,0.98,1000
16:16:33.291,15.75,-8.15,-237.72,-0.24,-0.43,-0.49,0.14,0.28,0.98,1000
16:16:33.293,15.75,-8.15,-237.72,-0.3,-0.3,-0.49,0.15,0.28,0.98,1000
16:16:33.295,15.75,-8.15,-237.72,-0.24,-0.37,-0.3,0.14,0.28,0.98,1000
16:16:33.297,15.75,-8.15,-237.72,-0.12,-0.3,-0.43,0.15,0.28,0.98,1000
16:16:33.299,15.75,-8.15,-237.72,-0.24,-0.37,-0.49,0.14,0.28,0.98,1000
16:16:33.302,15.75,-8.15,-237.72,-0.24,-0.43,-0.37,0.15,0.28,0.98,1000
16:16:33.303,15.75,-8.15,-237.72,-0.3,-0.37,-0.37,0.15,0.28,0.98,1000
16:16:33.305,15.75,-8.15,-237.72,-0.18,-0.43,-0.43,0.14,0.28,0.98,1000
16:16:33.307,15.75,-8.15,-237.72,-0.3,-0.37,-0.61,0.14,0.28,0.98,1000
16:16:33.309,15.75,-8.15,-237.72,-0.18,-0.3,-0.55,0.14,0.28,0.98,1000
16:16:33.311,15.75,-8.15,-237.72,-0.3,-0.3,-0.37,0.14,0.28,0.98,1000
16:16:33.314,15.75,-8.15,-237.72,-0.18,-0.3,-0.37,0.14,0.28,0.98,1000
16:16:33.315,15.75,-8.15,-237.72,-0.12,-0.37,-0.3,0.14,0.28,0.98,1000
16:16:33.317,15.75,-8.15,-237.73,-0.24,-0.3,-0.37,0.14,0.28,0.98,1000
16:16:33.319,15.75,-8.15,-237.73,-0.18,-0.37,-0.37,0.14,0.28,0.98,1000
16:16:33.321,15.75,-8.15,-237.73,-0.18,-0.37,-0.55,0.15,0.28,0.98,1000
16:16:33.323,15.75,-8.15,-237.73,-0.12,-0.3,-0.43,0.14,0.28,0.98,1000
16:16:33.325,15.75,-8.15,-237.73,-0.18,-0.24,-0.37,0.15,0.28,0.98,1000
16:16:33.329,15.75,-8.15,-237.73,-0.24,-0.3,-0.3,0.15,0.28,0.98,1000
16:16:33.329,15.75,-8.15,-237.73,-0.12,-0.12,-0.49,0.14,0.28,0.98,1000
16:16:33.331,15.75,-8.15,-237.73,-0.24,-0.24,-0.49,0.14,0.28,0.98,1000
16:16:33.333,15.75,-8.15,-237.73,-0.18,-0.3,-0.43,0.14,0.28,0.98,1000
16:16:33.335,15.75,-8.15,-237.73,-0.18,-0.18,-0.37,0.15,0.28,0.98,1000
16:16:33.337,15.75,-8.15,-237.73,-0.24,-0.18,-0.43,0.15,0.28,0.98,1000
16:16:33.339,15.75,-8.15,-237.73,-0.24,-0.24,-0.67,0.14,0.28,0.98,1000
16:16:33.341,15.75,-8.15,-237.73,-0.3,-0.3,-0.49,0.15,0.28,0.98,1000
16:16:33.343,15.75,-8.15,-237.73,-0.18,-0.37,-0.37,0.14,0.28,0.98,1000
16:16:33.345,15.75,-8.15,-237.73,-0.18,-0.3,-0.3,0.14,0.28,0.98,1000
16:16:33.347,15.75,-8.15,-237.73,-0.12,-0.3,-0.49,0.15,0.28,0.98,1000
16:16:33.350,15.75,-8.15,-237.73,-0.18,-0.37,-0.43,0.14,0.28,0.98,1000
16:16:33.351,15.75,-8.15,-237.73,-0.18,-0.3,-0.43,0.14,0.28,0.98,1000
16:16:33.355,15.75,-8.15,-237.74,-0.3,-0.37,-0.37,0.14,0.28,0.98,1000
16:16:33.355,15.75,-8.15,-237.74,-0.24,-0.37,-0.43,0.14,0.28,0.98,1000
16:16:33.357,15.75,-8.15,-237.74,-0.18,-0.37,-0.43,0.14,0.28,0.98,1000
16:16:33.359,15.75,-8.15,-237.74,-0.24,-0.24,-0.43,0.15,0.28,0.98,1000
16:16:33.361,15.75,-8.14,-237.74,-0.24,-0.37,-0.43,0.14,0.28,0.98,1000
16:16:33.363,15.75,-8.15,-237.74,-0.12,-0.24,-0.43,0.15,0.28,0.98,1000
16:16:33.365,15.75,-8.15,-237.74,-0.24,-0.37,-0.43,0.15,0.28,0.98,1000
16:16:33.367,15.75,-8.15,-237.74,-0.12,-0.18,-0.37,0.15,0.28,0.98,1000
16:16:33.369,15.75,-8.15,-237.74,-0.12,-0.12,-0.37,0.15,0.28,0.98,1000
16:16:33.373,15.75,-8.15,-237.74,-0.18,-0.24,-0.37,0.14,0.28,0.98,1000
16:16:33.373,15.75,-8.14,-237.74,-0.18,-0.3,-0.37,0.14,0.28,0.98,1000
16:16:33.390,15.75,-8.14,-237.74,-0.18,-0.18,-0.24,0.15,0.28,0.98,1000
16:16:33.390,15.75,-8.14,-237.74,-0.18,-0.37,-0.3,0.15,0.28,0.98,1000
16:16:33.390,15.75,-8.14,-237.74,-0.24,-0.18,-0.49,0.15,0.28,0.98,1000
16:16:33.390,15.75,-8.14,-237.74,-0.18,-0.24,-0.24,0.15,0.28,0.98,1000
16:16:33.390,15.75,-8.15,-237.74,-0.12,-0.3,-0.37,0.14,0.28,0.98,1000
16:16:33.390,15.75,-8.15,-237.74,-0.12,-0.24,-0.67,0.14,0.28,0.98,1000
16:16:33.390,15.75,-8.15,-237.75,-0.18,-0.3,-0.67,0.15,0.28,0.98,1000
16:16:33.390,15.75,-8.15,-237.75,-0.24,-0.18,-0.49,0.14,0.28,0.98,1000
16:16:33.393,15.75,-8.15,-237.75,-0.3,-0.24,-0.37,0.15,0.28,0.98,1000
16:16:33.393,15.75,-8.15,-237.75,-0.12,-0.18,-0.3,0.14,0.28,0.98,1000
16:16:33.395,15.75,-8.15,-237.75,-0.24,-0.24,-0.49,0.15,0.28,0.98,1000
16:16:33.398,15.75,-8.15,-237.75,-0.24,-0.12,-0.61,0.15,0.28,0.98,1000
16:16:33.399,15.75,-8.15,-237.75,-0.3,-0.18,-0.61,0.15,0.28,0.98,1000
16:16:33.401,15.75,-8.15,-237.75,-0.12,-0.3,-0.55,0.15,0.28,0.98,1000
16:16:33.403,15.75,-8.15,-237.75,-0.18,-0.24,-0.55,0.15,0.28,0.98,1000
16:16:33.405,15.75,-8.15,-237.75,-0.3,-0.24,-0.67,0.14,0.28,0.98,1000
16:16:33.407,15.75,-8.15,-237.75,-0.18,-0.18,-0.73,0.15,0.28,0.98,1000
16:16:33.409,15.75,-8.15,-237.75,-0.24,-0.37,-0.37,0.15,0.28,0.98,1000
16:16:33.411,15.75,-8.15,-237.75,-0.3,-0.24,-0.24,0.14,0.28,0.98,1000
16:16:33.413,15.75,-8.15,-237.76,-0.3,-0.3,-0.37,0.15,0.28,0.98,1000
16:16:33.416,15.75,-8.15,-237.76,-0.12,-0.18,-0.37,0.15,0.28,0.98,1000
16:16:33.417,15.75,-8.15,-237.76,-0.18,-0.12,-0.37,0.14,0.28,0.98,1000
16:16:33.419,15.75,-8.15,-237.76,-0.37,-0.24,-0.61,0.14,0.28,0.98,1000
16:16:33.421,15.75,-8.15,-237.76,-0.3,-0.18,-0.55,0.14,0.28,0.98,1000
16:16:33.423,15.75,-8.15,-237.76,-0.24,-0.24,-0.37,0.15,0.28,0.98,1000
16:16:33.425,15.75,-8.15,-237.76,-0.24,-0.24,-0.37,0.14,0.28,0.98,1000
16:16:33.427,15.75,-8.15,-237.76,-0.3,-0.3,-0.37,0.14,0.28,0.98,1000
16:16:33.429,15.75,-8.14,-237.76,-0.37,-0.18,-0.49,0.14,0.28,0.98,1000
16:16:33.431,15.75,-8.14,-237.76,-0.3,-0.3,-0.37,0.14,0.28,0.98,1000
16:16:33.433,15.75,-8.14,-237.76,-0.3,-0.18,-0.49,0.15,0.28,0.98,1000
16:16:33.435,15.75,-8.14,-237.76,-0.18,-0.18,-0.43,0.14,0.28,0.98,1000
16:16:33.437,15.75,-8.14,-237.76,-0.18,-0.18,-0.43,0.14,0.28,0.98,1000
16:16:33.439,15.75,-8.14,-237.76,-0.12,-0.37,-0.37,0.14,0.28,0.98,1000
16:16:33.441,15.75,-8.14,-237.76,-0.24,-0.24,-0.37,0.14,0.28,0.98,1000
16:16:33.443,15.75,-8.14,-237.76,-0.3,-0.18,-0.43,0.15,0.28,0.98,1000
16:16:33.445,15.75,-8.14,-237.76,-0.18,-0.3,-0.37,0.15,0.28,0.98,1000
16:16:33.447,15.75,-8.14,-237.76,-0.18,-0.3,-0.37,0.15,0.28,0.98,1000
16:16:33.449,15.75,-8.14,-237.77,-0.24,-0.3,-0.43,0.14,0.28,0.98,1000
16:16:33.452,15.75,-8.14,-237.77,-0.24,-0.37,-0.37,0.14,0.28,0.98,1000
16:16:33.453,15.75,-8.14,-237.77,-0.24,-0.3,-0.37,0.15,0.28,0.98,1000
16:16:33.459,15.75,-8.14,-237.77,-0.18,-0.37,-0.37,0.14,0.28,0.98,1000
16:16:33.459,15.75,-8.14,-237.77,-0.37,-0.3,-0.49,0.15,0.28,0.98,1000
16:16:33.459,15.75,-8.14,-237.77,-0.3,-0.37,-0.61,0.14,0.28,0.98,1000
16:16:33.461,15.75,-8.14,-237.77,-0.24,-0.43,-0.37,0.14,0.28,0.98,1000
16:16:33.465,15.75,-8.14,-237.77,-0.3,-0.43,-0.49,0.14,0.28,0.98,1000
16:16:33.466,15.75,-8.14,-237.77,-0.18,-0.24,-0.43,0.14,0.28,0.98,1000
16:16:33.467,15.75,-8.14,-237.77,-0.24,-0.37,-0.37,0.15,0.28,0.98,1000
16:16:33.469,15.75,-8.14,-237.77,-0.24,-0.43,-0.43,0.14,0.28,0.98,1000
16:16:33.471,15.75,-8.14,-237.77,-0.18,-0.18,-0.61,0.14,0.28,0.98,1000
16:16:33.473,15.75,-8.14,-237.77,-0.3,-0.18,-0.43,0.14,0.28,0.98,1000
16:16:33.475,15.75,-8.14,-237.77,-0.3,-0.18,-0.43,0.14,0.28,0.98,1000
16:16:33.477,15.75,-8.14,-237.77,-0.24,-0.37,-0.43,0.14,0.28,0.98,1000
16:16:33.494,15.75,-8.14,-237.77,-0.24,-0.3,-0.37,0.15,0.28,0.98,1000
16:16:33.494,15.75,-8.14,-237.77,-0.24,-0.12,-0.49,0.15,0.28,0.98,1000
16:16:33.494,15.75,-8.14,-237.78,-0.12,-0.18,-0.55,0.14,0.28,0.98,1000
16:16:33.494,15.75,-8.14,-237.78,-0.06,-0.3,-0.49,0.15,0.28,0.98,1000
16:16:33.494,15.75,-8.14,-237.78,-0.18,-0.37,-0.49,0.14,0.28,0.98,1000
16:16:33.494,15.75,-8.14,-237.78,-0.3,-0.3,-0.49,0.15,0.28,0.98,1000
16:16:33.494,15.75,-8.14,-237.78,-0.3,-0.3,-0.37,0.15,0.28,0.98,1000
16:16:33.494,15.75,-8.14,-237.78,-0.3,-0.18,-0.55,0.15,0.28,0.98,1000
16:16:33.496,15.75,-8.14,-237.78,-0.37,-0.18,-0.49,0.15,0.28,0.98,1000
16:16:33.497,15.75,-8.14,-237.78,-0.12,-0.18,-0.61,0.14,0.28,0.98,1000
16:16:33.499,15.75,-8.14,-237.78,-0.12,-0.3,-0.37,0.14,0.28,0.98,1000
16:16:33.501,15.75,-8.14,-237.78,-0.12,-0.24,-0.49,0.15,0.28,0.98,1000
16:16:33.503,15.75,-8.14,-237.78,-0.18,-0.24,-0.3,0.15,0.28,0.98,1000
16:16:33.505,15.75,-8.14,-237.78,-0.3,-0.3,-0.37,0.14,0.28,0.98,1000
16:16:33.507,15.75,-8.14,-237.78,-0.18,-0.24,-0.37,0.14,0.28,0.98,1000
16:16:33.509,15.75,-8.14,-237.78,-0.3,-0.24,-0.37,0.14,0.28,0.98,1000
16:16:33.511,15.75,-8.14,-237.78,-0.3,-0.3,-0.37,0.14,0.28,0.98,1000
16:16:33.513,15.75,-8.14,-237.78,-0.24,-0.37,-0.37,0.14,0.28,0.98,1000
16:16:33.515,15.75,-8.14,-237.78,-0.37,-0.24,-0.43,0.15,0.28,0.98,1000
16:16:33.519,15.75,-8.14,-237.79,-0.24,-0.43,-0.43,0.14,0.28,0.98,1000
16:16:33.519,15.75,-8.14,-237.79,-0.18,-0.37,-0.43,0.14,0.28,0.98,1000
16:16:33.521,15.75,-8.14,-237.79,-0.3,-0.24,-0.43,0.14,0.28,0.98,1000
16:16:33.523,15.75,-8.14,-237.79,-0.3,-0.37,-0.61,0.14,0.28,0.98,1000
16:16:33.526,15.75,-8.14,-237.79,-0.37,-0.49,-0.43,0.14,0.28,0.98,1000
16:16:33.527,15.75,-8.14,-237.79,-0.3,-0.37,-0.37,0.14,0.28,0.98,1000
16:16:33.529,15.75,-8.14,-237.79,-0.12,-0.3,-0.49,0.15,0.28,0.98,1000
16:16:33.531,15.75,-8.14,-237.79,-0.3,-0.12,-0.37,0.14,0.28,0.98,1000
16:16:33.533,15.75,-8.14,-237.79,-0.24,-0.3,-0.43,0.14,0.28,0.98,1000
16:16:33.535,15.75,-8.14,-237.79,-0.24,-0.37,-0.3,0.14,0.28,0.98,1000
16:16:33.537,15.75,-8.14,-237.79,-0.37,-0.37,-0.37,0.14,0.28,0.98,1000
16:16:33.539,15.74,-8.14,-237.79,-0.3,-0.3,-0.37,0.15,0.28,0.98,1000
16:16:33.541,15.74,-8.14,-237.79,-0.24,-0.3,-0.37,0.15,0.28,0.98,1000
16:16:33.543,15.74,-8.14,-237.79,-0.18,-0.37,-0.37,0.14,0.28,0.98,1000
16:16:33.546,15.74,-8.14,-237.79,-0.24,-0.37,-0.37,0.14,0.28,0.98,1000
16:16:33.547,15.75,-8.14,-237.79,-0.24,-0.37,-0.49,0.14,0.28,0.98,1000
16:16:33.549,15.74,-8.14,-237.8,-0.3,-0.3,-0.37,0.15,0.28,0.98,1000
16:16:33.551,15.74,-8.14,-237.8,-0.37,-0.3,-0.43,0.14,0.28,0.98,1000
16:16:33.555,15.74,-8.14,-237.8,-0.3,-0.24,-0.55,0.15,0.28,0.98,1000
16:16:33.555,15.74,-8.14,-237.8,-0.24,-0.37,-0.49,0.15,0.28,0.98,1000
16:16:33.559,15.74,-8.14,-237.8,-0.18,-0.12,-0.49,0.15,0.28,0.98,1000
16:16:33.560,15.74,-8.14,-237.8,-0.18,-0.3,-0.37,0.15,0.28,0.98,1000
16:16:33.561,15.74,-8.14,-237.8,-0.12,-0.18,-0.18,0.14,0.28,0.98,1000
16:16:33.563,15.75,-8.14,-237.8,-0.18,-0.3,-0.37,0.14,0.28,0.98,1000
16:16:33.565,15.75,-8.14,-237.8,-0.12,-0.3,-0.43,0.15,0.28,0.98,1000
16:16:33.567,15.75,-8.14,-237.8,-0.18,-0.37,-0.43,0.15,0.28,0.98,1000
16:16:33.569,15.75,-8.14,-237.8,-0.06,-0.37,-0.61,0.14,0.28,0.98,1000
16:16:33.571,15.75,-8.14,-237.8,-0.18,-0.24,-0.37,0.14,0.28,0.98,1000
16:16:33.573,15.75,-8.14,-237.8,-0.24,-0.12,-0.37,0.15,0.28,0.98,1000
16:16:33.575,15.75,-8.14,-237.8,-0.24,-0.3,-0.49,0.15,0.28,0.98,1000
16:16:33.577,15.75,-8.14,-237.8,-0.18,-0.3,-0.43,0.14,0.28,0.98,1000
16:16:33.581,15.75,-8.14,-237.8,-0.18,-0.37,-0.37,0.15,0.28,0.98,1000
16:16:33.588,15.75,-8.14,-237.8,-0.24,-0.18,-0.37,0.14,0.28,0.98,1000
16:16:33.598,15.75,-8.14,-237.81,-0.24,-0.24,-0.49,0.14,0.28,0.98,1000
16:16:33.598,15.75,-8.14,-237.81,-0.18,-0.24,-0.37,0.15,0.28,0.98,1000
16:16:33.598,15.75,-8.14,-237.81,-0.24,-0.43,-0.55,0.15,0.28,0.98,1000
16:16:33.599,15.75,-8.14,-237.81,-0.37,-0.3,-0.37,0.14,0.28,0.98,1000
16:16:33.599,15.74,-8.14,-237.81,-0.37,-0.3,-0.43,0.15,0.28,0.98,1000
16:16:33.599,15.74,-8.14,-237.81,-0.37,-0.3,-0.43,0.14,0.28,0.98,1000
16:16:33.599,15.74,-8.14,-237.81,-0.37,-0.3,-0.37,0.15,0.28,0.98,1000
16:16:33.599,15.74,-8.14,-237.81,-0.24,-0.37,-0.49,0.14,0.28,0.98,1000
16:16:33.599,15.74,-8.14,-237.81,-0.3,-0.3,-0.37,0.15,0.28,0.98,1000
16:16:33.602,15.74,-8.14,-237.81,-0.12,-0.18,-0.43,0.14,0.28,0.98,1000
16:16:33.603,15.74,-8.14,-237.81,-0.18,-0.37,-0.37,0.15,0.28,0.98,1000
16:16:33.605,15.74,-8.14,-237.81,-0.18,-0.37,-0.37,0.15,0.28,0.98,1000
16:16:33.607,15.74,-8.14,-237.81,-0.18,-0.24,-0.37,0.14,0.28,0.98,1000
16:16:33.609,15.74,-8.14,-237.81,-0.12,-0.3,-0.37,0.15,0.28,0.98,1000
16:16:33.611,15.74,-8.14,-237.82,-0.18,-0.3,-0.37,0.15,0.28,0.98,1000
16:16:33.613,15.74,-8.14,-237.82,-0.24,-0.18,-0.24,0.15,0.28,0.98,1000
16:16:33.616,15.74,-8.14,-237.82,-0.24,-0.37,-0.3,0.15,0.28,0.98,1000
16:16:33.617,15.74,-8.14,-237.82,-0.12,-0.3,-0.43,0.15,0.28,0.98,1000
16:16:33.619,15.74,-8.15,-237.82,-0.24,-0.3,-0.43,0.15,0.28,0.98,1000
16:16:33.621,15.74,-8.15,-237.82,-0.24,-0.24,-0.49,0.14,0.28,0.98,1000
16:16:33.623,15.74,-8.15,-237.82,-0.24,-0.24,-0.55,0.14,0.28,0.98,1000
16:16:33.625,15.74,-8.15,-237.82,-0.3,-0.37,-0.37,0.15,0.28,0.98,1000
16:16:33.629,15.74,-8.15,-237.82,-0.37,-0.3,-0.24,0.14,0.28,0.98,1000
16:16:33.629,15.74,-8.15,-237.82,-0.24,-0.24,-0.37,0.14,0.28,0.98,1000
16:16:33.631,15.74,-8.15,-237.82,-0.24,-0.24,-0.49,0.14,0.28,0.98,1000
16:16:33.633,15.74,-8.15,-237.82,-0.18,-0.24,-0.37,0.15,0.28,0.98,1000
16:16:33.635,15.74,-8.15,-237.82,-0.24,-0.24,-0.37,0.15,0.28,0.98,1000
16:16:33.637,15.74,-8.15,-237.82,-0.43,-0.24,-0.43,0.14,0.28,0.98,1000
16:16:33.639,15.74,-8.15,-237.82,-0.37,-0.24,-0.49,0.15,0.28,0.98,1000
16:16:33.641,15.74,-8.15,-237.82,-0.3,-0.18,-0.67,0.15,0.28,0.98,1000
16:16:33.643,15.74,-8.15,-237.82,-0.18,-0.12,-0.43,0.14,0.28,0.98,1000
16:16:33.646,15.74,-8.15,-237.83,-0.24,-0.18,-0.55,0.14,0.28,0.98,1000
16:16:33.647,15.74,-8.15,-237.83,-0.24,-0.18,-0.43,0.15,0.28,0.98,1000
16:16:33.649,15.74,-8.15,-237.83,-0.06,-0.12,-0.37,0.14,0.28,0.98,1000
16:16:33.651,15.74,-8.15,-237.83,-0.18,-0.18,-0.49,0.14,0.28,0.98,1000
16:16:33.655,15.74,-8.15,-237.83,-0.24,-0.18,-0.37,0.15,0.28,0.98,1000
16:16:33.658,15.74,-8.15,-237.83,-0.24,-0.37,-0.43,0.14,0.28,0.98,1000
16:16:33.658,15.74,-8.15,-237.83,-0.18,-0.55,-0.43,0.14,0.28,0.98,1000
16:16:33.659,15.74,-8.15,-237.83,-0.24,-0.3,-0.55,0.14,0.28,0.98,1000
16:16:33.662,15.74,-8.15,-237.83,-0.18,-0.18,-0.3,0.14,0.28,0.98,1000
16:16:33.663,15.74,-8.15,-237.83,-0.24,-0.3,-0.37,0.14,0.28,0.98,1000
16:16:33.665,15.74,-8.15,-237.83,-0.06,-0.24,-0.37,0.14,0.28,0.98,1000
16:16:33.667,15.74,-8.15,-237.83,-0.24,-0.37,-0.49,0.14,0.28,0.98,1000
16:16:33.669,15.74,-8.15,-237.83,-0.37,-0.37,-0.37,0.15,0.28,0.98,1000
16:16:33.673,15.74,-8.15,-237.83,-0.3,-0.37,-0.37,0.15,0.28,0.98,1000
16:16:33.674,15.74,-8.15,-237.83,-0.18,-0.43,-0.49,0.15,0.28,0.98,1000
16:16:33.675,15.74,-8.15,-237.83,-0.18,-0.18,-0.43,0.14,0.28,0.98,1000
16:16:33.677,15.74,-8.15,-237.83,-0.18,-0.3,-0.43,0.14,0.28,0.98,1000
16:16:33.680,15.74,-8.15,-237.84,-0.12,-0.37,-0.37,0.14,0.28,0.98,1000
16:16:33.682,15.74,-8.15,-237.84,-0.24,-0.37,-0.43,0.14,0.28,0.98,1000
16:16:33.690,15.74,-8.15,-237.84,-0.3,-0.3,-0.37,0.14,0.28,0.98,1000
16:16:33.691,15.74,-8.15,-237.84,-0.37,-0.06,-0.49,0.15,0.28,0.98,1000
16:16:33.691,15.74,-8.15,-237.84,-0.18,-0.18,-0.67,0.15,0.28,0.98,1000
16:16:33.691,15.74,-8.15,-237.84,-0.12,-0.24,-0.55,0.15,0.28,0.98,1000
16:16:33.696,15.74,-8.15,-237.84,-0.12,-0.24,-0.37,0.15,0.28,0.98,1000
16:16:33.697,15.74,-8.15,-237.84,-0.06,-0.24,-0.37,0.14,0.28,0.98,1000
16:16:33.697,15.74,-8.15,-237.84,-0.24,-0.37,-0.37,0.15,0.28,0.98,1000
16:16:33.697,15.74,-8.15,-237.84,-0.24,-0.3,-0.37,0.14,0.28,0.98,1000
16:16:33.701,15.74,-8.15,-237.84,-0.18,-0.43,-0.49,0.14,0.28,0.98,1000
16:16:33.701,15.74,-8.15,-237.84,-0.18,-0.37,-0.55,0.15,0.28,0.98,1000
16:16:33.705,15.74,-8.15,-237.84,-0.18,-0.24,-0.49,0.15,0.28,0.98,1000
16:16:33.705,15.74,-8.15,-237.84,-0.12,-0.3,-0.37,0.14,0.28,0.98,1000
16:16:33.707,15.74,-8.15,-237.84,-0.06,-0.24,-0.37,0.14,0.28,0.98,1000
16:16:33.709,15.74,-8.15,-237.84,-0.18,-0.37,-0.37,0.14,0.28,0.98,1000
16:16:33.711,15.74,-8.15,-237.85,-0.3,-0.37,-0.37,0.14,0.28,0.98,1000
16:16:33.713,15.74,-8.15,-237.85,-0.3,-0.3,-0.24,0.15,0.28,0.98,1000
16:16:33.715,15.74,-8.15,-237.85,-0.3,-0.3,-0.37,0.14,0.28,0.98,1000
16:16:33.717,15.74,-8.15,-237.85,-0.3,-0.37,-0.37,0.14,0.28,0.98,1000
16:16:33.719,15.74,-8.15,-237.85,-0.37,-0.24,-0.37,0.15,0.28,0.98,1000
16:16:33.721,15.74,-8.15,-237.85,-0.24,-0.18,-0.55,0.15,0.28,0.98,1000
16:16:33.723,15.74,-8.15,-237.85,-0.18,-0.18,-0.55,0.14,0.28,0.98,1000
16:16:33.725,15.74,-8.15,-237.85,-0.18,-0.3,-0.3,0.15,0.28,0.98,1000
16:16:33.727,15.74,-8.15,-237.85,-0.24,-0.12,-0.49,0.15,0.28,0.98,1000
16:16:33.729,15.74,-8.15,-237.85,-0.24,-0.3,-0.43,0.14,0.28,0.98,1000
16:16:33.731,15.74,-8.15,-237.85,-0.3,-0.24,-0.55,0.14,0.28,0.98,1000
16:16:33.733,15.74,-8.15,-237.85,-0.18,-0.3,-0.37,0.14,0.28,0.98,1000
16:16:33.735,15.74,-8.15,-237.85,-0.12,-0.12,-0.61,0.14,0.28,0.98,1000
16:16:33.737,15.74,-8.15,-237.85,-0.18,-0.3,-0.43,0.15,0.28,0.98,1000
16:16:33.739,15.74,-8.15,-237.85,-0.12,-0.37,-0.37,0.15,0.28,0.98,1000
16:16:33.741,15.74,-8.15,-237.85,-0.06,-0.3,-0.49,0.15,0.28,0.98,1000
16:16:33.743,15.74,-8.15,-237.85,-0.37,-0.37,-0.55,0.15,0.28,0.98,1000
16:16:33.745,15.74,-8.15,-237.85,-0.24,-0.3,-0.49,0.15,0.28,0.98,1000
16:16:33.748,15.74,-8.15,-237.86,0.0,-0.3,-0.49,0.15,0.28,0.98,1000
16:16:33.749,15.75,-8.15,-237.86,-0.06,-0.3,-0.43,0.15,0.28,0.98,1000
16:16:33.751,15.75,-8.15,-237.86,-0.24,-0.37,-0.49,0.14,0.28,0.98,1000
16:16:33.753,15.75,-8.15,-237.86,-0.3,-0.37,-0.3,0.15,0.28,0.98,1000
16:16:33.755,15.75,-8.15,-237.86,-0.3,-0.18,-0.49,0.15,0.28,0.98,1000
16:16:33.757,15.75,-8.15,-237.86,-0.18,-0.37,-0.43,0.14,0.28,0.98,1000
16:16:33.760,15.75,-8.15,-237.86,-0.24,-0.24,-0.49,0.14,0.28,0.98,1000
16:16:33.764,15.75,-8.15,-237.86,-0.37,-0.3,-0.37,0.15,0.28,0.98,1000
16:16:33.765,15.75,-8.15,-237.86,-0.24,-0.37,-0.61,0.14,0.28,0.98,1000
16:16:33.765,15.75,-8.15,-237.86,-0.18,-0.3,-0.49,0.15,0.28,0.98,1000
16:16:33.767,15.75,-8.15,-237.86,-0.3,-0.43,-0.43,0.14,0.28,0.98,1000
16:16:33.769,15.75,-8.15,-237.86,-0.12,-0.43,-0.43,0.14,0.28,0.98,1000
16:16:33.771,15.75,-8.15,-237.86,-0.12,-0.37,-0.55,0.15,0.28,0.98,1000
16:16:33.775,15.75,-8.15,-237.86,-0.24,-0.37,-0.49,0.14,0.28,0.98,1000
16:16:33.775,15.75,-8.15,-237.87,-0.18,-0.37,-0.49,0.14,0.28,0.98,1000
16:16:33.777,15.75,-8.15,-237.87,-0.37,-0.37,-0.37,0.14,0.28,0.98,1000
16:16:33.779,15.75,-8.15,-237.87,-0.06,-0.37,-0.67,0.14,0.28,0.98,1000
16:16:33.781,15.75,-8.15,-237.87,-0.12,-0.37,-0.37,0.14,0.28,0.98,1000
16:16:33.783,15.75,-8.15,-237.87,-0.3,-0.37,-0.37,0.15,0.28,0.98,1000
16:16:33.785,15.75,-8.15,-237.87,-0.37,-0.37,-0.37,0.14,0.28,0.98,1000
16:16:33.793,15.75,-8.15,-237.87,-0.24,-0.18,-0.49,0.14,0.28,0.98,1000
16:16:33.801,15.75,-8.15,-237.87,-0.18,-0.24,-0.43,0.15,0.28,0.98,1000
16:16:33.801,15.75,-8.15,-237.87,-0.24,-0.3,-0.49,0.15,0.28,0.98,1000
16:16:33.801,15.75,-8.15,-237.87,-0.24,-0.3,-0.37,0.15,0.28,0.98,1000
16:16:33.801,15.74,-8.15,-237.87,-0.37,-0.18,-0.37,0.15,0.28,0.98,1000
16:16:33.801,15.74,-8.15,-237.87,-0.24,0.0,-0.61,0.14,0.28,0.98,1000
16:16:33.802,15.74,-8.15,-237.87,-0.18,-0.24,-0.49,0.14,0.28,0.98,1000
16:16:33.802,15.74,-8.15,-237.87,-0.18,-0.3,-0.43,0.15,0.28,0.98,1000
16:16:33.803,15.74,-8.15,-237.87,-0.18,-0.12,-0.43,0.15,0.28,0.98,1000
16:16:33.805,15.74,-8.15,-237.88,-0.18,-0.43,-0.43,0.15,0.28,0.98,1000
16:16:33.807,15.74,-8.15,-237.88,-0.18,-0.18,-0.49,0.15,0.28,0.98,1000
16:16:33.809,15.74,-8.15,-237.88,-0.3,-0.24,-0.49,0.15,0.28,0.98,1000
16:16:33.811,15.74,-8.15,-237.88,-0.3,-0.37,-0.37,0.15,0.28,0.98,1000
16:16:33.816,15.74,-8.15,-237.88,-0.24,-0.3,-0.43,0.14,0.28,0.98,1000
16:16:33.816,15.74,-8.15,-237.88,-0.12,-0.3,-0.43,0.14,0.28,0.98,1000
16:16:33.819,15.74,-8.15,-237.88,-0.24,-0.18,-0.49,0.14,0.28,0.98,1000
16:16:33.819,15.74,-8.15,-237.88,-0.24,-0.18,-0.67,0.15,0.28,0.98,1000
16:16:33.821,15.74,-8.15,-237.88,-0.18,-0.37,-0.49,0.14,0.28,0.98,1000
16:16:33.823,15.74,-8.15,-237.88,-0.24,-0.06,-0.49,0.14,0.28,0.98,1000
16:16:33.825,15.74,-8.15,-237.88,-0.37,-0.12,-0.61,0.14,0.28,0.98,1000
16:16:33.827,15.74,-8.15,-237.88,-0.24,-0.18,-0.49,0.15,0.28,0.98,1000
16:16:33.829,15.74,-8.15,-237.88,-0.24,-0.24,-0.37,0.14,0.28,0.98,1000
16:16:33.831,15.74,-8.15,-237.88,-0.24,-0.37,-0.49,0.14,0.28,0.98,1000
16:16:33.834,15.74,-8.15,-237.88,-0.24,-0.37,-0.37,0.14,0.28,0.98,1000
16:16:33.835,15.74,-8.15,-237.89,-0.18,-0.24,-0.37,0.15,0.28,0.98,1000
16:16:33.837,15.74,-8.15,-237.89,-0.12,-0.3,-0.37,0.14,0.28,0.98,1000
16:16:33.839,15.74,-8.15,-237.89,-0.3,-0.43,-0.49,0.14,0.28,0.98,1000
16:16:33.841,15.74,-8.15,-237.89,-0.3,-0.24,-0.43,0.14,0.28,0.98,1000
16:16:33.843,15.74,-8.15,-237.89,-0.18,-0.24,-0.37,0.14,0.28,0.98,1000
16:16:33.845,15.74,-8.15,-237.89,-0.18,-0.3,-0.49,0.14,0.28,0.98,1000
16:16:33.847,15.74,-8.15,-237.89,-0.24,-0.12,-0.49,0.14,0.28,0.98,1000
16:16:33.849,15.74,-8.15,-237.89,-0.24,-0.3,-0.37,0.14,0.28,0.98,1000
16:16:33.851,15.74,-8.15,-237.89,-0.18,-0.37,-0.18,0.14,0.28,0.98,1000
16:16:33.853,15.74,-8.15,-237.89,-0.24,-0.3,-0.18,0.14,0.28,0.98,1000
16:16:33.855,15.74,-8.15,-237.89,-0.18,-0.37,-0.3,0.14,0.28,0.98,1000
16:16:33.857,15.74,-8.15,-237.89,-0.37,-0.24,-0.37,0.14,0.28,0.98,1000
16:16:33.859,15.74,-8.15,-237.89,-0.37,-0.24,-0.37,0.14,0.28,0.98,1000
16:16:33.864,15.74,-8.15,-237.89,-0.37,-0.24,-0.37,0.14,0.28,0.98,1000
16:16:33.864,15.74,-8.15,-237.89,-0.24,-0.3,-0.37,0.14,0.28,0.98,1000
16:16:33.867,15.74,-8.15,-237.89,-0.3,-0.3,-0.43,0.14,0.28,0.98,1000
16:16:33.867,15.74,-8.15,-237.89,-0.24,-0.3,-0.37,0.14,0.28,0.98,1000
16:16:33.869,15.74,-8.15,-237.89,-0.3,-0.37,-0.49,0.14,0.28,0.98,1000
16:16:33.871,15.74,-8.15,-237.89,-0.18,-0.37,-0.37,0.14,0.28,0.98,1000
16:16:33.873,15.74,-8.15,-237.89,-0.18,-0.37,-0.43,0.14,0.28,0.98,1000
16:16:33.875,15.74,-8.15,-237.9,-0.3,-0.37,-0.49,0.15,0.28,0.98,1000
16:16:33.877,15.74,-8.15,-237.9,-0.24,-0.18,-0.43,0.14,0.28,0.98,1000
16:16:33.879,15.74,-8.15,-237.9,-0.18,-0.24,-0.37,0.14,0.28,0.98,1000
16:16:33.881,15.74,-8.15,-237.9,-0.12,-0.24,-0.37,0.14,0.28,0.98,1000
16:16:33.884,15.74,-8.15,-237.9,-0.18,-0.37,-0.37,0.14,0.28,0.98,1000
16:16:33.885,15.74,-8.15,-237.9,-0.12,-0.18,-0.24,0.15,0.28,0.98,1000
16:16:33.887,15.74,-8.15,-237.9,-0.3,-0.06,-0.43,0.15,0.28,0.98,1000
16:16:33.901,15.74,-8.15,-237.9,-0.18,-0.06,-0.3,0.14,0.28,0.98,1000
16:16:33.901,15.74,-8.15,-237.9,-0.24,-0.12,-0.37,0.14,0.28,0.98,1000
16:16:33.901,15.74,-8.15,-237.9,-0.12,-0.12,-0.43,0.14,0.28,0.98,1000
16:16:33.901,15.74,-8.15,-237.9,-0.18,-0.3,-0.37,0.15,0.28,0.98,1000
16:16:33.901,15.74,-8.15,-237.9,-0.12,-0.37,-0.67,0.14,0.28,0.98,1000
16:16:33.901,15.75,-8.15,-237.9,-0.12,-0.3,-0.49,0.14,0.28,0.98,1000
16:16:33.901,15.75,-8.15,-237.9,-0.24,-0.37,-0.61,0.14,0.28,0.98,1000
16:16:33.903,15.75,-8.15,-237.9,-0.18,-0.37,-0.61,0.14,0.28,0.98,1000
16:16:33.905,15.75,-8.14,-237.91,-0.3,-0.24,-0.43,0.14,0.28,0.98,1000
16:16:33.907,15.75,-8.14,-237.91,-0.3,-0.18,-0.3,0.15,0.28,0.98,1000
16:16:33.909,15.75,-8.14,-237.91,-0.24,-0.24,-0.3,0.15,0.28,0.98,1000
16:16:33.911,15.75,-8.14,-237.91,-0.3,-0.37,-0.37,0.15,0.28,0.98,1000
16:16:33.913,15.75,-8.14,-237.91,-0.3,-0.24,-0.37,0.14,0.28,0.98,1000
16:16:33.915,15.75,-8.14,-237.91,-0.24,-0.3,-0.43,0.14,0.28,0.98,1000
16:16:33.917,15.75,-8.14,-237.91,-0.3,-0.3,-0.43,0.14,0.28,0.98,1000
16:16:33.919,15.75,-8.14,-237.91,-0.3,-0.3,-0.55,0.14,0.28,0.98,1000
16:16:33.921,15.75,-8.14,-237.91,-0.24,-0.18,-0.43,0.15,0.28,0.98,1000
16:16:33.923,15.75,-8.14,-237.91,-0.18,-0.43,-0.55,0.15,0.28,0.98,1000
16:16:33.925,15.75,-8.14,-237.91,-0.18,-0.37,-0.37,0.14,0.28,0.98,1000
16:16:33.928,15.75,-8.14,-237.91,-0.24,-0.37,-0.37,0.15,0.28,0.98,1000
16:16:33.929,15.75,-8.14,-237.91,-0.3,-0.3,-0.37,0.14,0.28,0.98,1000
16:16:33.931,15.75,-8.14,-237.91,-0.18,-0.37,-0.55,0.14,0.28,0.98,1000
16:16:33.933,15.75,-8.14,-237.91,-0.18,-0.3,-0.37,0.15,0.28,0.98,1000
16:16:33.936,15.75,-8.14,-237.91,-0.3,-0.37,-0.43,0.15,0.28,0.98,1000
16:16:33.937,15.75,-8.14,-237.91,-0.3,-0.3,-0.37,0.14,0.28,0.98,1000
16:16:33.939,15.75,-8.14,-237.92,-0.24,-0.3,-0.37,0.14,0.28,0.98,1000
16:16:33.941,15.75,-8.14,-237.92,-0.24,-0.3,-0.55,0.14,0.28,0.98,1000
16:16:33.943,15.75,-8.14,-237.92,-0.24,-0.37,-0.37,0.14,0.28,0.98,1000
16:16:33.945,15.75,-8.14,-237.92,-0.3,-0.3,-0.49,0.14,0.28,0.98,1000
16:16:33.947,15.75,-8.14,-237.92,-0.24,-0.18,-0.3,0.15,0.28,0.98,1000
