Timestamp,Roll,Pitch,Yaw,Gyro_X,Gyro_Y,Gyro_Z,Accel_X,Accel_Y,Accel_Z,Throttle
17:19:42.311,-3.73,-4.1,-176.11,-1.04,-0.67,-0.61,0.07,-0.06,1.02,1000
17:19:42.324,-3.72,-4.08,-176.12,0.0,-0.55,-0.67,0.07,-0.07,1.03,1000
17:19:42.335,-3.71,-4.06,-176.12,-0.06,-0.85,-1.04,0.07,-0.06,1.04,1000
17:19:42.344,-3.69,-4.05,-176.13,-0.06,-0.61,-0.43,0.08,-0.07,1.02,1000
17:19:42.355,-3.67,-4.11,-176.13,-0.12,-0.37,-0.24,0.08,-0.06,1.02,1000
17:19:42.368,-3.64,-4.15,-176.14,-0.67,-0.18,-0.49,0.07,-0.06,1.02,1000
17:19:42.379,-3.6,-4.16,-176.15,-0.3,-0.12,-0.79,0.07,-0.06,1.03,1000
17:19:42.390,-3.58,-4.16,-176.15,-0.79,-0.37,-0.43,0.08,-0.07,1.03,1000
17:19:42.399,-3.62,-4.16,-176.16,-0.73,0.18,-0.24,0.08,-0.07,1.03,1000
17:19:42.410,-3.67,-4.16,-176.16,-0.3,0.06,-0.37,0.07,-0.07,1.02,1000
17:19:42.421,-3.71,-4.14,-176.16,-0.12,-0.18,-0.79,0.07,-0.07,1.03,1000
17:19:42.433,-3.73,-4.08,-176.17,0.12,-0.67,-0.85,0.07,-0.06,1.03,1000
17:19:42.443,-3.72,-4.06,-176.18,0.06,-0.79,-0.67,0.08,-0.07,1.02,1000
17:19:42.454,-3.71,-4.08,-176.18,0.12,-0.43,-0.37,0.07,-0.06,1.03,1000
17:19:42.468,-3.69,-4.09,-176.19,-0.06,-0.18,-0.49,0.08,-0.06,1.03,1000
17:19:42.490,-3.62,-4.12,-176.19,-0.49,-0.18,-0.73,0.07,-0.06,1.02,1000
17:19:42.490,-3.58,-4.13,-176.2,-0.91,-0.12,-0.85,0.08,-0.07,1.02,1000
17:19:42.498,-3.59,-4.15,-176.21,-0.67,0.3,-0.24,0.08,-0.07,1.02,1000
17:19:42.509,-3.62,-4.16,-176.21,-0.67,0.06,-0.18,0.07,-0.07,1.02,1000
17:19:42.520,-3.68,-4.14,-176.21,-0.37,0.06,-0.3,0.07,-0.07,1.03,1000
17:19:42.531,-3.7,-4.08,-176.21,-0.3,-0.55,-0.91,0.07,-0.07,1.02,1000
17:19:42.545,-3.72,-4.05,-176.22,0.0,-0.55,-0.91,0.07,-0.07,1.03,1000
17:19:42.553,-3.74,-4.03,-176.23,0.0,-0.43,-0.49,0.08,-0.07,1.03,1000
17:19:42.564,-3.74,-4.04,-176.23,-0.06,-0.61,-0.3,0.08,-0.06,1.02,1000
17:19:42.575,-3.69,-4.06,-176.24,-0.3,-0.49,-0.61,0.08,-0.06,1.03,1000
17:19:42.591,-3.65,-4.09,-176.25,-0.37,-0.12,-0.55,0.08,-0.06,1.02,1000
17:19:42.597,-3.61,-4.14,-176.26,-0.37,0.0,-0.24,0.08,-0.06,1.03,1000
17:19:42.608,-3.61,-4.16,-176.26,-0.79,0.24,-0.18,0.07,-0.07,1.03,1000
17:19:42.620,-3.62,-4.15,-176.26,-0.55,-0.12,-0.37,0.07,-0.06,1.02,1000
17:19:42.631,-3.63,-4.14,-176.26,-0.49,-0.18,-0.43,0.07,-0.07,1.03,1000
17:19:42.643,-3.67,-4.11,-176.27,-0.24,-0.18,-0.73,0.07,-0.07,1.03,1000
17:19:42.652,-3.71,-4.09,-176.28,0.06,-0.49,-0.49,0.07,-0.07,1.02,1000
17:19:42.663,-3.72,-4.08,-176.28,0.18,-0.43,-0.55,0.07,-0.06,1.02,1000
17:19:42.674,-3.71,-4.07,-176.29,-0.06,-0.37,-0.55,0.07,-0.06,1.02,1000
17:19:42.685,-3.67,-4.08,-176.3,0.0,0.06,-0.3,0.07,-0.06,1.05,1000
17:19:42.696,-3.61,-4.07,-176.3,-0.55,-0.3,-0.43,0.07,-0.06,1.02,1000
17:19:42.707,-3.58,-4.08,-176.31,-0.61,-0.73,-0.37,0.08,-0.06,1.01,1000
17:19:42.718,-3.57,-4.12,-176.31,-0.73,-0.85,-0.37,0.08,-0.07,1.04,1000
17:19:42.729,-3.62,-4.22,-176.32,-0.37,0.18,-0.55,0.09,-0.07,1.02,1000
17:19:42.741,-3.65,-4.31,-176.32,0.06,0.73,-0.67,0.07,-0.06,1.03,1000
17:19:42.751,-3.65,-4.27,-176.33,-0.79,0.37,-0.61,0.06,-0.06,1.03,1000
17:19:42.762,-3.61,-4.15,-176.34,-0.79,-0.37,-0.61,0.06,-0.06,1.02,1000
17:19:42.774,-3.6,-4.06,-176.34,-0.79,-0.79,-0.12,0.07,-0.08,1.02,1000
17:19:42.785,-3.67,-4.02,-176.34,-0.3,-0.12,-0.12,0.08,-0.07,1.04,1000
17:19:42.797,-3.71,-4.06,-176.34,0.43,0.06,-0.61,0.07,-0.06,1.02,1000
17:19:42.807,-3.71,-4.07,-176.35,0.18,-0.73,-1.16,0.06,-0.06,1.03,1000
17:19:42.817,-3.68,-4.04,-176.36,-0.18,-0.98,-1.04,0.07,-0.06,1.03,1000
17:19:42.828,-3.62,-4.07,-176.37,-0.67,-1.16,-0.37,0.09,-0.07,1.02,1000
17:19:42.839,-3.62,-4.17,-176.37,-0.67,0.12,0.0,0.08,-0.07,1.02,1000
17:19:42.850,-3.62,-4.26,-176.37,-0.61,0.73,-0.73,0.08,-0.06,1.02,1000
17:19:42.861,-3.59,-4.28,-176.38,-0.91,0.49,-1.1,0.06,-0.06,1.03,1000
17:19:42.872,-3.6,-4.2,-176.39,-0.91,0.3,-0.61,0.06,-0.07,1.03,1000
17:19:42.889,-3.63,-4.11,-176.39,-0.67,-0.37,0.12,0.07,-0.07,1.02,1000
17:19:42.901,-3.68,-4.04,-176.39,-0.06,-0.61,0.12,0.07,-0.08,1.03,1000
17:19:42.905,-3.72,-4.0,-176.4,0.49,-0.61,-0.85,0.08,-0.07,1.03,1000
17:19:42.918,-3.72,-4.01,-176.41,0.55,-1.04,-1.28,0.08,-0.06,1.02,1000
17:19:42.927,-3.7,-4.04,-176.42,0.24,-0.91,-1.16,0.08,-0.06,1.02,1000
17:19:42.938,-3.65,-4.08,-176.43,-0.3,-0.18,-0.37,0.08,-0.05,1.02,1000
17:19:42.949,-3.58,-4.14,-176.43,-0.73,0.12,-0.06,0.08,-0.06,1.02,1000
17:19:42.960,-3.53,-4.18,-176.43,-1.22,0.55,-0.3,0.07,-0.06,1.03,1000
17:19:42.972,-3.54,-4.19,-176.43,-1.16,0.67,-0.85,0.08,-0.07,1.02,1000
17:19:42.983,-3.59,-4.19,-176.44,-0.79,0.3,-0.55,0.07,-0.08,1.03,1000
17:19:42.993,-3.7,-4.11,-176.44,-0.37,0.0,-0.24,0.06,-0.07,1.03,1000
17:19:43.004,-3.76,-4.04,-176.45,0.0,-0.73,-0.43,0.07,-0.07,1.02,1000
17:19:43.015,-3.78,-3.99,-176.45,0.49,-1.16,-0.85,0.07,-0.07,1.03,1000
17:19:43.026,-3.78,-3.99,-176.46,0.67,-1.04,-0.98,0.08,-0.07,1.02,1000
17:19:43.037,-3.74,-4.04,-176.47,0.18,-0.67,-0.55,0.08,-0.06,1.02,1000
17:19:43.049,-3.68,-4.11,-176.48,-0.43,-0.24,-0.3,0.08,-0.06,1.02,1000
17:19:43.060,-3.63,-4.16,-176.48,-0.79,0.24,-0.24,0.08,-0.06,1.02,1000
17:19:43.070,-3.57,-4.21,-176.48,-1.16,0.49,-0.43,0.08,-0.06,1.03,1000
17:19:43.084,-3.57,-4.22,-176.48,-0.98,0.49,-0.37,0.07,-0.07,1.03,1000
17:19:43.103,-3.61,-4.17,-176.49,-0.73,0.3,-0.67,0.07,-0.07,1.02,1000
17:19:43.104,-3.66,-4.1,-176.49,-0.3,-0.24,-0.37,0.06,-0.07,1.03,1000
17:19:43.114,-3.72,-4.01,-176.5,0.06,-0.79,-0.55,0.07,-0.07,1.03,1000
17:19:43.125,-3.77,-3.97,-176.5,0.49,-1.04,-0.85,0.08,-0.07,1.03,1000
17:19:43.138,-3.76,-4.0,-176.51,0.67,-0.91,-0.85,0.08,-0.06,1.03,1000
17:19:43.147,-3.72,-4.05,-176.52,0.18,-0.67,-0.67,0.08,-0.06,1.03,1000
17:19:43.159,-3.65,-4.1,-176.53,-0.37,-0.3,-0.43,0.08,-0.06,1.03,1000
17:19:43.170,-3.57,-4.16,-176.53,-0.98,0.24,-0.49,0.08,-0.06,1.03,1000
17:19:43.180,-3.54,-4.19,-176.54,-1.16,0.3,-0.37,0.08,-0.07,1.02,1000
17:19:43.191,-3.55,-4.21,-176.54,-1.16,0.43,-0.61,0.07,-0.07,1.03,1000
17:19:43.202,-3.61,-4.19,-176.55,-0.61,0.3,-0.43,0.07,-0.07,1.03,1000
17:19:43.213,-3.68,-4.13,-176.55,-0.18,-0.24,-0.61,0.06,-0.07,1.03,1000
17:19:43.225,-3.75,-4.05,-176.56,0.3,-0.85,-0.79,0.07,-0.07,1.03,1000
17:19:43.239,-3.76,-4.01,-176.56,0.61,-0.98,-0.55,0.07,-0.07,1.03,1000
17:19:43.247,-3.76,-4.02,-176.57,0.43,-0.85,-0.85,0.08,-0.06,1.02,1000
17:19:43.257,-3.72,-4.06,-176.58,0.06,-0.43,-0.79,0.08,-0.06,1.03,1000
17:19:43.268,-3.65,-4.12,-176.59,-0.37,-0.06,-0.49,0.08,-0.06,1.02,1000
17:19:43.279,-3.58,-4.18,-176.59,-0.98,0.37,-0.61,0.08,-0.06,1.03,1000
17:19:43.290,-3.55,-4.19,-176.59,-1.22,0.3,-0.24,0.08,-0.07,1.03,1000
17:19:43.301,-3.57,-4.19,-176.6,-1.04,0.18,-0.49,0.07,-0.07,1.02,1000
17:19:43.312,-3.62,-4.17,-176.6,-0.61,0.0,-0.3,0.07,-0.07,1.03,1000
17:19:43.323,-3.68,-4.14,-176.6,0.12,-0.43,-0.55,0.07,-0.07,1.03,1000
17:19:43.334,-3.75,-4.09,-176.61,0.3,-0.79,-0.67,0.07,-0.07,1.03,1000
17:19:43.345,-3.76,-4.04,-176.62,0.49,-0.79,-0.55,0.07,-0.06,1.02,1000
17:19:43.356,-3.72,-4.03,-176.63,0.24,-0.55,-0.61,0.07,-0.06,1.02,1000
17:19:43.367,-3.66,-4.04,-176.64,-0.12,-0.3,-0.43,0.08,-0.06,1.03,1000
17:19:43.378,-3.6,-4.07,-176.64,-0.49,-0.12,-0.37,0.08,-0.06,1.02,1000
17:19:43.392,-3.57,-4.13,-176.65,-0.85,-0.06,-0.61,0.08,-0.07,1.02,1000
17:19:43.404,-3.58,-4.17,-176.65,-0.85,0.3,-0.3,0.08,-0.07,1.02,1000
17:19:43.412,-3.61,-4.18,-176.66,-0.61,0.12,-0.3,0.07,-0.07,1.03,1000
17:19:43.425,-3.64,-4.15,-176.66,-0.3,0.0,-0.49,0.07,-0.07,1.02,1000
17:19:43.433,-3.69,-4.08,-176.67,0.06,-0.18,-0.55,0.07,-0.07,1.02,1000
17:19:43.444,-3.74,-4.04,-176.67,0.12,-0.79,-0.55,0.08,-0.07,1.03,1000
17:19:43.455,-3.76,-4.06,-176.68,0.43,-0.85,-0.67,0.08,-0.07,1.02,1000
17:19:43.467,-3.75,-4.13,-176.69,0.18,-0.61,-0.67,0.08,-0.06,1.02,1000
17:19:43.477,-3.7,-4.17,-176.7,-0.18,-0.12,-0.67,0.07,-0.06,1.03,1000
17:19:43.493,-3.64,-4.18,-176.7,-0.61,0.3,-0.3,0.07,-0.06,1.02,1000
17:19:43.504,-3.55,-4.15,-176.7,-1.1,0.24,-0.3,0.07,-0.06,1.02,1000
17:19:43.510,-3.52,-4.11,-176.7,-1.1,0.12,-0.24,0.07,-0.07,1.03,1000
17:19:43.521,-3.54,-4.08,-176.7,-0.79,-0.06,-0.37,0.07,-0.07,1.02,1000
17:19:43.532,-3.62,-4.07,-176.71,-0.24,-0.24,-0.67,0.07,-0.07,1.03,1000
17:19:43.543,-3.7,-4.06,-176.72,0.3,-0.49,-0.73,0.07,-0.07,1.03,1000
17:19:43.554,-3.74,-4.04,-176.73,0.43,-0.67,-0.61,0.07,-0.07,1.02,1000
17:19:43.565,-3.73,-4.02,-176.73,0.18,-0.85,-0.61,0.08,-0.06,1.03,1000
17:19:43.576,-3.69,-4.06,-176.74,-0.06,-0.61,-0.49,0.08,-0.06,1.02,1000
17:19:43.587,-3.66,-4.14,-176.74,-0.37,-0.3,-0.49,0.08,-0.06,1.02,1000
17:19:43.608,-3.63,-4.2,-176.75,-0.49,0.3,-0.37,0.08,-0.06,1.03,1000
17:19:43.609,-3.59,-4.21,-176.76,-0.79,0.43,-0.55,0.07,-0.06,1.02,1000
17:19:43.620,-3.57,-4.17,-176.76,-0.98,0.0,-0.43,0.06,-0.07,1.03,1000
17:19:43.631,-3.6,-4.11,-176.77,-0.61,-0.12,-0.24,0.07,-0.07,1.03,1000
17:19:43.642,-3.64,-4.07,-176.77,-0.3,-0.49,-0.49,0.07,-0.07,1.02,1000
17:19:43.654,-3.7,-4.05,-176.78,0.18,-0.49,-0.73,0.08,-0.07,1.03,1000
17:19:43.664,-3.73,-4.06,-176.78,0.24,-0.61,-0.67,0.07,-0.06,1.02,1000
17:19:43.675,-3.72,-4.08,-176.79,0.3,-0.55,-0.79,0.07,-0.06,1.03,1000
17:19:43.688,-3.68,-4.1,-176.8,-0.37,-0.24,-0.55,0.07,-0.06,1.03,1000
17:19:43.697,-3.63,-4.11,-176.81,-0.67,-0.18,-0.49,0.08,-0.06,1.02,1000
17:19:43.710,-3.59,-4.13,-176.81,-0.79,0.0,-0.43,0.07,-0.06,1.02,1000
17:19:43.719,-3.58,-4.14,-176.81,-0.73,0.06,-0.67,0.08,-0.07,1.03,1000
17:19:43.730,-3.59,-4.14,-176.82,-0.49,0.06,-0.43,0.07,-0.07,1.02,1000
17:19:43.741,-3.63,-4.12,-176.82,-0.43,-0.12,-0.49,0.07,-0.07,1.03,1000
17:19:43.752,-3.67,-4.09,-176.83,-0.24,-0.37,-0.49,0.07,-0.07,1.03,1000
17:19:43.764,-3.68,-4.05,-176.84,0.06,-0.73,-0.61,0.07,-0.07,1.03,1000
17:19:43.774,-3.68,-4.04,-176.84,-0.12,-0.73,-0.61,0.08,-0.06,1.03,1000
17:19:43.785,-3.66,-4.06,-176.85,-0.24,-0.55,-0.61,0.08,-0.06,1.02,1000
17:19:43.800,-3.64,-4.11,-176.86,-0.43,-0.3,-0.37,0.08,-0.06,1.02,1000
17:19:43.807,-3.63,-4.17,-176.86,-0.67,0.06,-0.67,0.08,-0.06,1.02,1000
17:19:43.821,-3.62,-4.2,-176.87,-0.61,0.12,-0.73,0.07,-0.07,1.03,1000
17:19:43.829,-3.63,-4.19,-176.87,-0.67,0.06,-0.61,0.07,-0.07,1.03,1000
17:19:43.840,-3.65,-4.16,-176.88,-0.79,-0.18,-0.61,0.07,-0.07,1.02,1000
17:19:43.851,-3.68,-4.11,-176.88,-0.55,-0.43,-0.37,0.07,-0.07,1.03,1000
17:19:43.862,-3.71,-4.08,-176.89,-0.06,-0.49,-0.43,0.07,-0.07,1.03,1000
17:19:43.873,-3.73,-4.08,-176.9,0.06,-0.61,-0.55,0.07,-0.07,1.02,1000
17:19:43.884,-3.73,-4.09,-176.9,0.0,-0.55,-0.67,0.07,-0.06,1.03,1000
17:19:43.895,-3.71,-4.1,-176.91,-0.06,-0.3,-0.55,0.08,-0.07,1.02,1000
17:19:43.906,-3.69,-4.12,-176.92,-0.3,-0.12,-0.43,0.08,-0.06,1.03,1000
17:19:43.917,-3.66,-4.15,-176.92,-0.49,0.06,-0.55,0.08,-0.06,1.03,1000
17:19:43.928,-3.64,-4.16,-176.93,-0.73,-0.12,-0.73,0.07,-0.07,1.02,1000
17:19:43.939,-3.65,-4.16,-176.93,-0.49,0.0,-0.61,0.07,-0.07,1.03,1000
17:19:43.950,-3.67,-4.14,-176.94,-0.49,-0.12,-0.37,0.07,-0.07,1.03,1000
17:19:43.962,-3.69,-4.12,-176.94,-0.18,-0.18,-0.37,0.07,-0.07,1.02,1000
17:19:43.973,-3.69,-4.09,-176.95,0.06,-0.43,-0.61,0.07,-0.07,1.02,1000
17:19:43.983,-3.69,-4.08,-176.96,-0.12,-0.55,-0.61,0.07,-0.07,1.02,1000
17:19:43.994,-3.68,-4.08,-176.96,-0.06,-0.37,-0.79,0.08,-0.06,1.02,1000
17:19:44.005,-3.67,-4.11,-176.97,-0.18,-0.24,-0.3,0.08,-0.06,1.03,1000
17:19:44.017,-3.65,-4.14,-176.97,-0.37,-0.12,-0.43,0.08,-0.06,1.02,1000
17:19:44.028,-3.63,-4.15,-176.98,-0.61,-0.06,-0.55,0.08,-0.06,1.03,1000
17:19:44.038,-3.62,-4.14,-176.98,-0.73,0.0,-0.61,0.07,-0.07,1.03,1000
17:19:44.049,-3.64,-4.13,-176.99,-0.67,-0.12,-0.3,0.07,-0.07,1.02,1000
17:19:44.060,-3.67,-4.12,-176.99,-0.06,-0.24,-0.43,0.07,-0.07,1.02,1000
17:19:44.071,-3.69,-4.1,-177.0,-0.12,-0.55,-0.43,0.08,-0.07,1.03,1000
17:19:44.082,-3.7,-4.1,-177.01,0.12,-0.3,-0.61,0.07,-0.07,1.03,1000
17:19:44.093,-3.7,-4.11,-177.01,0.0,-0.49,-0.67,0.08,-0.06,1.03,1000
17:19:44.106,-3.69,-4.12,-177.02,-0.18,-0.18,-0.43,0.07,-0.06,1.02,1000
17:19:44.124,-3.67,-4.12,-177.03,-0.43,-0.24,-0.37,0.07,-0.06,1.03,1000
17:19:44.128,-3.65,-4.14,-177.03,-0.55,-0.12,-0.61,0.08,-0.06,1.03,1000
17:19:44.137,-3.64,-4.15,-177.04,-0.67,-0.12,-0.49,0.08,-0.07,1.02,1000
17:19:44.148,-3.66,-4.15,-177.04,-0.55,-0.12,-0.49,0.07,-0.07,1.03,1000
17:19:44.161,-3.69,-4.14,-177.05,-0.37,-0.24,-0.49,0.07,-0.07,1.02,1000
17:19:44.170,-3.7,-4.11,-177.05,-0.24,-0.3,-0.55,0.07,-0.06,1.03,1000
17:19:44.181,-3.7,-4.09,-177.06,-0.12,-0.43,-0.55,0.07,-0.07,1.03,1000
17:19:44.194,-3.7,-4.08,-177.07,-0.06,-0.43,-0.43,0.08,-0.06,1.02,1000
17:19:44.203,-3.68,-4.09,-177.07,-0.18,-0.43,-0.49,0.08,-0.06,1.03,1000
17:19:44.220,-3.66,-4.12,-177.08,-0.37,-0.3,-0.55,0.08,-0.06,1.02,1000
17:19:44.227,-3.65,-4.13,-177.08,-0.49,-0.18,-0.49,0.07,-0.06,1.03,1000
17:19:44.236,-3.64,-4.14,-177.09,-0.61,-0.18,-0.67,0.07,-0.06,1.03,1000
17:19:44.247,-3.64,-4.14,-177.1,-0.67,-0.18,-0.43,0.07,-0.07,1.02,1000
17:19:44.259,-3.65,-4.12,-177.1,-0.37,-0.06,-0.61,0.07,-0.07,1.03,1000
17:19:44.270,-3.67,-4.11,-177.11,-0.37,-0.3,-0.61,0.08,-0.07,1.02,1000
17:19:44.281,-3.69,-4.09,-177.11,-0.24,-0.3,-0.67,0.07,-0.07,1.03,1000
17:19:44.291,-3.7,-4.09,-177.12,-0.12,-0.49,-0.73,0.07,-0.07,1.03,1000
17:19:44.303,-3.7,-4.09,-177.13,-0.18,-0.37,-0.61,0.07,-0.06,1.03,1000
17:19:44.313,-3.68,-4.1,-177.13,-0.18,-0.24,-0.37,0.08,-0.06,1.03,1000
17:19:44.324,-3.66,-4.1,-177.14,-0.43,-0.24,-0.49,0.08,-0.06,1.03,1000
17:19:44.336,-3.65,-4.13,-177.14,-0.55,-0.18,-0.61,0.08,-0.06,1.03,1000
17:19:44.346,-3.65,-4.14,-177.15,-0.37,-0.06,-0.49,0.07,-0.07,1.03,1000
17:19:44.357,-3.67,-4.14,-177.15,-0.37,-0.24,-0.55,0.07,-0.07,1.03,1000
17:19:44.368,-3.7,-4.13,-177.16,-0.37,-0.18,-0.37,0.07,-0.07,1.03,1000
17:19:44.379,-3.71,-4.12,-177.16,-0.24,-0.37,-0.55,0.07,-0.06,1.03,1000
17:19:44.391,-3.71,-4.1,-177.17,-0.3,-0.37,-0.67,0.07,-0.07,1.03,1000
17:19:44.401,-3.7,-4.1,-177.18,-0.3,-0.49,-0.73,0.08,-0.07,1.03,1000
17:19:44.412,-3.69,-4.11,-177.18,-0.18,-0.37,-0.55,0.07,-0.06,1.02,1000
17:19:44.426,-3.68,-4.12,-177.19,-0.3,-0.3,-0.43,0.08,-0.06,1.03,1000
17:19:44.435,-3.67,-4.14,-177.19,-0.37,-0.18,-0.61,0.07,-0.06,1.03,1000
17:19:44.445,-3.65,-4.14,-177.2,-0.49,-0.18,-0.43,0.07,-0.06,1.03,1000
17:19:44.456,-3.64,-4.14,-177.2,-0.55,0.0,-0.55,0.07,-0.07,1.03,1000
17:19:44.467,-3.65,-4.13,-177.21,-0.49,-0.12,-0.55,0.07,-0.07,1.02,1000
17:19:44.478,-3.67,-4.12,-177.22,-0.43,-0.37,-0.67,0.07,-0.07,1.03,1000
17:19:44.490,-3.69,-4.11,-177.22,-0.12,-0.37,-0.55,0.07,-0.07,1.03,1000
17:19:44.500,-3.7,-4.11,-177.23,-0.06,-0.24,-0.73,0.07,-0.07,1.03,1000
17:19:44.513,-3.69,-4.11,-177.24,-0.12,-0.49,-0.73,0.07,-0.07,1.03,1000
17:19:44.528,-3.68,-4.11,-177.24,-0.18,-0.49,-0.49,0.07,-0.06,1.03,1000
17:19:44.537,-3.67,-4.12,-177.25,-0.43,-0.12,-0.67,0.08,-0.07,1.02,1000
17:19:44.544,-3.65,-4.13,-177.26,-0.49,-0.06,-0.67,0.07,-0.06,1.03,1000
17:19:44.556,-3.64,-4.14,-177.26,-0.49,-0.06,-0.49,0.08,-0.07,1.02,1000
17:19:44.566,-3.65,-4.14,-177.27,-0.3,-0.12,-0.49,0.07,-0.07,1.03,1000
17:19:44.578,-3.66,-4.14,-177.27,-0.43,-0.12,-0.49,0.08,-0.07,1.03,1000
17:19:44.589,-3.67,-4.13,-177.28,-0.24,-0.3,-0.55,0.07,-0.07,1.03,1000
17:19:44.599,-3.69,-4.12,-177.29,-0.18,-0.24,-0.61,0.07,-0.07,1.02,1000
17:19:44.610,-3.69,-4.11,-177.29,0.0,-0.55,-0.55,0.07,-0.06,1.03,1000
17:19:44.621,-3.69,-4.12,-177.3,-0.12,-0.3,-0.67,0.08,-0.06,1.03,1000
17:19:44.632,-3.68,-4.14,-177.3,-0.3,-0.37,-0.55,0.08,-0.06,1.02,1000
17:19:44.643,-3.66,-4.15,-177.31,-0.49,-0.24,-0.61,0.07,-0.06,1.03,1000
17:19:44.654,-3.64,-4.16,-177.32,-0.49,-0.06,-0.49,0.08,-0.06,1.02,1000
17:19:44.665,-3.63,-4.15,-177.32,-0.55,0.0,-0.49,0.07,-0.07,1.02,1000
17:19:44.676,-3.64,-4.14,-177.33,-0.49,-0.18,-0.37,0.08,-0.07,1.03,1000
17:19:44.687,-3.67,-4.13,-177.33,-0.3,-0.18,-0.73,0.07,-0.07,1.02,1000
17:19:44.699,-3.7,-4.12,-177.34,-0.12,-0.49,-0.49,0.07,-0.07,1.03,1000
17:19:44.709,-3.71,-4.11,-177.34,0.06,-0.3,-0.61,0.07,-0.07,1.03,1000
17:19:44.720,-3.71,-4.1,-177.35,-0.12,-0.43,-0.61,0.07,-0.06,1.03,1000
17:19:44.735,-3.69,-4.1,-177.36,-0.18,-0.43,-0.61,0.07,-0.06,1.03,1000
17:19:44.743,-3.67,-4.1,-177.36,-0.3,-0.24,-0.67,0.08,-0.06,1.03,1000
17:19:44.753,-3.65,-4.11,-177.37,-0.49,-0.12,-0.37,0.08,-0.06,1.03,1000
17:19:44.764,-3.64,-4.13,-177.37,-0.43,-0.12,-0.43,0.07,-0.06,1.03,1000
17:19:44.776,-3.64,-4.13,-177.38,-0.37,0.06,-0.3,0.07,-0.06,1.03,1000
17:19:44.786,-3.64,-4.12,-177.38,-0.37,-0.24,-0.43,0.07,-0.07,1.03,1000
17:19:44.798,-3.66,-4.11,-177.39,-0.3,-0.43,-0.37,0.07,-0.07,1.03,1000
17:19:44.808,-3.68,-4.09,-177.4,-0.06,-0.37,-0.43,0.07,-0.07,1.03,1000
17:19:44.819,-3.69,-4.08,-177.4,0.0,-0.55,-0.67,0.07,-0.07,1.03,1000
17:19:44.835,-3.69,-4.08,-177.41,-0.12,-0.37,-0.61,0.07,-0.06,1.03,1000
17:19:44.843,-3.68,-4.09,-177.41,-0.18,-0.3,-0.43,0.07,-0.06,1.03,1000
17:19:44.852,-3.67,-4.1,-177.42,-0.37,-0.18,-0.55,0.07,-0.07,1.03,1000
17:19:44.863,-3.66,-4.11,-177.42,-0.49,-0.12,-0.43,0.08,-0.06,1.02,1000
17:19:44.874,-3.65,-4.12,-177.43,-0.49,-0.18,-0.37,0.07,-0.07,1.03,1000
17:19:44.885,-3.65,-4.13,-177.43,-0.49,-0.24,-0.73,0.07,-0.07,1.03,1000
17:19:44.896,-3.67,-4.12,-177.44,-0.43,-0.18,-0.79,0.07,-0.07,1.03,1000
17:19:44.907,-3.69,-4.12,-177.45,-0.24,-0.24,-0.55,0.07,-0.07,1.03,1000
17:19:44.918,-3.7,-4.11,-177.45,0.0,-0.49,-0.61,0.07,-0.07,1.03,1000
17:19:44.929,-3.7,-4.1,-177.46,-0.18,-0.61,-0.73,0.07,-0.07,1.02,1000
17:19:44.940,-3.69,-4.1,-177.47,-0.24,-0.37,-0.49,0.08,-0.06,1.03,1000
17:19:44.951,-3.68,-4.12,-177.47,-0.3,-0.24,-0.49,0.07,-0.06,1.03,1000
17:19:44.962,-3.66,-4.13,-177.48,-0.3,-0.18,-0.61,0.08,-0.06,1.03,1000
17:19:44.973,-3.64,-4.14,-177.48,-0.43,-0.18,-0.43,0.08,-0.07,1.03,1000
17:19:44.984,-3.64,-4.15,-177.49,-0.37,-0.12,-0.49,0.07,-0.06,1.03,1000
17:19:44.995,-3.64,-4.14,-177.49,-0.37,-0.18,-0.49,0.07,-0.07,1.03,1000
17:19:45.006,-3.65,-4.13,-177.5,-0.3,-0.18,-0.55,0.07,-0.07,1.03,1000
17:19:45.017,-3.66,-4.11,-177.5,-0.18,-0.3,-0.55,0.07,-0.07,1.03,1000
17:19:45.028,-3.67,-4.1,-177.51,-0.3,-0.49,-0.67,0.07,-0.06,1.02,1000
17:19:45.040,-3.68,-4.1,-177.52,-0.12,-0.37,-0.67,0.07,-0.06,1.03,1000
17:19:45.053,-3.66,-4.11,-177.52,-0.12,-0.43,-0.55,0.07,-0.06,1.03,1000
17:19:45.061,-3.65,-4.13,-177.53,-0.12,-0.18,-0.37,0.08,-0.06,1.03,1000
17:19:45.072,-3.63,-4.14,-177.53,-0.24,-0.18,-0.49,0.08,-0.06,1.02,1000
17:19:45.083,-3.62,-4.14,-177.54,-0.49,-0.18,-0.49,0.07,-0.06,1.03,1000
17:19:45.094,-3.62,-4.15,-177.54,-0.18,-0.18,-0.67,0.07,-0.06,1.02,1000
17:19:45.105,-3.62,-4.14,-177.55,-0.49,-0.24,-0.49,0.08,-0.07,1.02,1000
17:19:45.117,-3.64,-4.14,-177.55,-0.3,-0.24,-0.49,0.07,-0.07,1.02,1000
17:19:45.129,-3.65,-4.12,-177.56,-0.18,-0.24,-0.55,0.07,-0.07,1.03,1000
17:19:45.141,-3.67,-4.11,-177.57,-0.18,-0.37,-0.43,0.08,-0.07,1.03,1000
17:19:45.159,-3.68,-4.11,-177.57,-0.06,-0.3,-0.49,0.07,-0.07,1.02,1000
17:19:45.161,-3.68,-4.11,-177.58,-0.12,-0.18,-0.61,0.08,-0.06,1.03,1000
17:19:45.171,-3.67,-4.13,-177.59,-0.3,-0.3,-0.49,0.08,-0.06,1.02,1000
17:19:45.184,-3.65,-4.14,-177.59,-0.37,-0.18,-0.55,0.07,-0.06,1.03,1000
17:19:45.196,-3.64,-4.16,-177.6,-0.43,-0.12,-0.43,0.07,-0.06,1.02,1000
17:19:45.204,-3.63,-4.15,-177.6,-0.3,-0.18,-0.43,0.08,-0.07,1.03,1000
17:19:45.215,-3.64,-4.15,-177.61,-0.43,-0.12,-0.43,0.07,-0.07,1.03,1000
17:19:45.226,-3.65,-4.14,-177.61,-0.18,-0.24,-0.55,0.07,-0.07,1.02,1000
17:19:45.237,-3.67,-4.13,-177.62,-0.3,-0.24,-0.43,0.07,-0.07,1.03,1000
17:19:45.248,-3.68,-4.13,-177.62,-0.24,-0.18,-0.73,0.07,-0.07,1.03,1000
17:19:45.259,-3.68,-4.13,-177.63,-0.24,-0.37,-0.61,0.07,-0.07,1.02,1000
17:19:45.270,-3.68,-4.13,-177.64,-0.24,-0.18,-0.61,0.08,-0.06,1.02,1000
17:19:45.281,-3.66,-4.13,-177.64,-0.37,-0.24,-0.55,0.08,-0.06,1.03,1000
17:19:45.292,-3.64,-4.13,-177.65,-0.43,-0.24,-0.37,0.07,-0.06,1.02,1000
17:19:45.304,-3.63,-4.13,-177.66,-0.37,-0.06,-0.55,0.07,-0.06,1.03,1000
17:19:45.314,-3.62,-4.13,-177.66,-0.37,-0.18,-0.49,0.07,-0.06,1.03,1000
17:19:45.325,-3.63,-4.12,-177.67,-0.37,-0.12,-0.61,0.07,-0.07,1.03,1000
17:19:45.336,-3.64,-4.12,-177.67,-0.12,-0.24,-0.43,0.07,-0.07,1.02,1000
17:19:45.348,-3.64,-4.12,-177.68,-0.12,-0.3,-0.43,0.07,-0.07,1.03,1000
17:19:45.358,-3.65,-4.11,-177.68,-0.18,-0.18,-0.43,0.07,-0.07,1.03,1000
17:19:45.369,-3.65,-4.1,-177.69,-0.3,-0.55,-0.49,0.07,-0.06,1.03,1000
17:19:45.380,-3.66,-4.11,-177.69,-0.3,-0.24,-0.55,0.08,-0.07,1.02,1000
17:19:45.391,-3.66,-4.12,-177.7,-0.3,-0.37,-0.49,0.07,-0.06,1.03,1000
17:19:45.402,-3.64,-4.13,-177.71,-0.3,-0.24,-0.55,0.08,-0.06,1.03,1000
17:19:45.413,-3.63,-4.14,-177.71,-0.3,-0.18,-0.73,0.07,-0.06,1.02,1000
17:19:45.424,-3.63,-4.14,-177.72,-0.3,-0.18,-0.67,0.07,-0.07,1.03,1000
17:19:45.439,-3.64,-4.14,-177.72,-0.43,-0.12,-0.43,0.07,-0.07,1.03,1000
17:19:45.455,-3.65,-4.13,-177.73,-0.24,-0.18,-0.49,0.07,-0.07,1.03,1000
17:19:45.459,-3.66,-4.13,-177.73,-0.24,-0.37,-0.55,0.07,-0.07,1.03,1000
17:19:45.468,-3.68,-4.12,-177.74,-0.37,-0.37,-0.79,0.07,-0.07,1.02,1000
17:19:45.479,-3.69,-4.11,-177.75,-0.37,-0.3,-0.49,0.07,-0.07,1.03,1000
17:19:45.490,-3.69,-4.12,-177.75,-0.18,-0.24,-0.67,0.07,-0.07,1.03,1000
17:19:45.501,-3.67,-4.13,-177.76,-0.37,-0.3,-0.61,0.07,-0.06,1.02,1000
17:19:45.512,-3.66,-4.14,-177.77,-0.49,-0.37,-0.49,0.07,-0.07,1.02,1000
17:19:45.523,-3.66,-4.14,-177.77,-0.49,-0.18,-0.49,0.07,-0.07,1.03,1000
17:19:45.534,-3.66,-4.14,-177.78,-0.3,-0.18,-0.43,0.07,-0.07,1.03,1000
17:19:45.545,-3.66,-4.14,-177.78,-0.49,-0.12,-0.67,0.07,-0.07,1.02,1000
17:19:45.558,-3.67,-4.14,-177.79,-0.3,-0.18,-0.61,0.08,-0.07,1.03,1000
17:19:45.567,-3.67,-4.13,-177.79,-0.3,-0.24,-0.73,0.07,-0.07,1.03,1000
17:19:45.578,-3.68,-4.13,-177.8,-0.18,-0.3,-0.55,0.08,-0.07,1.03,1000
17:19:45.589,-3.69,-4.13,-177.81,0.0,-0.3,-0.55,0.07,-0.07,1.02,1000
17:19:45.600,-3.69,-4.13,-177.81,-0.24,-0.3,-0.67,0.07,-0.06,1.03,1000
17:19:45.613,-3.67,-4.12,-177.82,-0.24,-0.18,-0.43,0.07,-0.06,1.02,1000
17:19:45.624,-3.65,-4.13,-177.82,-0.37,-0.18,-0.55,0.07,-0.06,1.02,1000
17:19:45.634,-3.65,-4.12,-177.83,-0.37,0.0,-0.49,0.07,-0.06,1.03,1000
17:19:45.644,-3.64,-4.12,-177.83,-0.37,-0.06,-0.37,0.07,-0.06,1.03,1000
17:19:45.655,-3.65,-4.11,-177.84,-0.43,-0.12,-0.73,0.07,-0.07,1.03,1000
17:19:45.666,-3.66,-4.11,-177.84,-0.24,-0.37,-0.55,0.07,-0.07,1.02,1000
17:19:45.678,-3.66,-4.1,-177.85,-0.37,-0.3,-0.61,0.07,-0.06,1.02,1000
17:19:45.692,-3.66,-4.1,-177.86,-0.12,-0.37,-0.67,0.07,-0.06,1.03,1000
17:19:45.704,-3.66,-4.1,-177.86,-0.12,-0.24,-0.55,0.08,-0.06,1.02,1000
17:19:45.710,-3.66,-4.1,-177.87,-0.18,-0.37,-0.61,0.08,-0.06,1.02,1000
17:19:45.721,-3.66,-4.11,-177.88,-0.37,-0.06,-0.49,0.07,-0.06,1.02,1000
17:19:45.732,-3.65,-4.12,-177.88,-0.43,-0.3,-0.49,0.08,-0.06,1.02,1000
17:19:45.744,-3.65,-4.13,-177.89,-0.3,-0.18,-0.43,0.07,-0.07,1.02,1000
17:19:45.757,-3.64,-4.14,-177.89,-0.49,-0.12,-0.43,0.08,-0.06,1.02,1000
17:19:45.767,-3.64,-4.14,-177.9,-0.37,-0.3,-0.67,0.07,-0.07,1.03,1000
17:19:45.776,-3.65,-4.13,-177.9,-0.24,-0.18,-0.43,0.07,-0.07,1.03,1000
17:19:45.787,-3.67,-4.12,-177.91,-0.24,-0.18,-0.43,0.08,-0.07,1.02,1000
17:19:45.799,-3.67,-4.12,-177.92,-0.18,-0.24,-0.67,0.08,-0.06,1.02,1000
17:19:45.809,-3.66,-4.13,-177.92,-0.37,-0.3,-0.61,0.07,-0.07,1.03,1000
17:19:45.822,-3.65,-4.13,-177.93,-0.12,-0.12,-0.55,0.07,-0.06,1.03,1000
17:19:45.831,-3.64,-4.14,-177.94,-0.3,-0.18,-0.49,0.07,-0.06,1.02,1000
17:19:45.842,-3.64,-4.14,-177.94,-0.49,-0.18,-0.67,0.07,-0.06,1.03,1000
17:19:45.857,-3.64,-4.13,-177.95,-0.37,-0.24,-0.49,0.08,-0.06,1.02,1000
17:19:45.871,-3.64,-4.14,-177.95,-0.37,-0.18,-0.55,0.07,-0.07,1.03,1000
17:19:45.875,-3.65,-4.14,-177.96,-0.3,-0.18,-0.55,0.07,-0.07,1.02,1000
17:19:45.886,-3.66,-4.13,-177.96,-0.24,-0.3,-0.55,0.07,-0.06,1.03,1000
17:19:45.897,-3.67,-4.12,-177.97,-0.3,-0.43,-0.67,0.07,-0.07,1.03,1000
17:19:45.908,-3.67,-4.11,-177.98,-0.24,-0.3,-0.55,0.07,-0.06,1.02,1000
17:19:45.920,-3.67,-4.1,-177.98,-0.3,-0.24,-0.49,0.07,-0.06,1.03,1000
17:19:45.930,-3.67,-4.1,-177.99,-0.3,-0.3,-0.49,0.07,-0.07,1.03,1000
17:19:45.941,-3.67,-4.1,-177.99,-0.3,-0.24,-0.49,0.07,-0.07,1.03,1000
17:19:45.952,-3.66,-4.12,-178.0,-0.43,-0.3,-0.61,0.07,-0.07,1.03,1000
17:19:45.968,-3.66,-4.12,-178.0,-0.24,-0.18,-0.55,0.07,-0.07,1.02,1000
17:19:45.974,-3.66,-4.13,-178.01,-0.37,-0.18,-0.43,0.08,-0.07,1.02,1000
17:19:46.005,-3.66,-4.14,-178.02,-0.24,-0.24,-0.37,0.08,-0.06,1.03,1000
17:19:46.030,-3.66,-4.14,-178.02,-0.37,-0.18,-0.37,0.07,-0.07,1.03,1000
17:19:46.030,-3.67,-4.14,-178.03,-0.3,-0.24,-0.49,0.07,-0.07,1.03,1000
17:19:46.030,-3.68,-4.13,-178.03,-0.37,-0.12,-0.61,0.07,-0.07,1.02,1000
17:19:46.030,-3.68,-4.11,-178.04,-0.43,-0.18,-0.55,0.07,-0.07,1.03,1000
17:19:46.040,-3.68,-4.1,-178.05,-0.24,-0.43,-0.49,0.08,-0.07,1.03,1000
17:19:46.051,-3.68,-4.1,-178.05,-0.3,-0.37,-0.61,0.08,-0.07,1.03,1000
17:19:46.065,-3.68,-4.11,-178.06,-0.18,-0.37,-0.49,0.08,-0.07,1.02,1000
17:19:46.075,-3.67,-4.12,-178.07,-0.3,-0.49,-0.61,0.08,-0.06,1.03,1000
17:19:46.087,-3.66,-4.14,-178.07,-0.37,-0.24,-0.73,0.07,-0.06,1.03,1000
17:19:46.095,-3.65,-4.14,-178.08,-0.37,-0.24,-0.79,0.07,-0.06,1.03,1000
17:19:46.107,-3.63,-4.14,-178.08,-0.37,-0.18,-0.49,0.07,-0.06,1.03,1000
17:19:46.117,-3.63,-4.13,-178.09,-0.37,-0.18,-0.61,0.08,-0.07,1.02,1000
17:19:46.129,-3.64,-4.11,-178.09,-0.24,-0.06,-0.43,0.07,-0.07,1.03,1000
17:19:46.141,-3.65,-4.11,-178.1,-0.3,-0.18,-0.49,0.07,-0.07,1.03,1000
17:19:46.150,-3.67,-4.1,-178.1,-0.24,-0.37,-0.55,0.07,-0.07,1.03,1000
17:19:46.166,-3.68,-4.11,-178.11,-0.18,-0.37,-0.37,0.08,-0.07,1.03,1000
17:19:46.179,-3.68,-4.12,-178.12,-0.24,-0.37,-0.55,0.07,-0.06,1.02,1000
17:19:46.183,-3.66,-4.14,-178.12,-0.3,-0.24,-0.61,0.07,-0.06,1.03,1000
17:19:46.194,-3.63,-4.15,-178.13,-0.3,-0.18,-0.67,0.07,-0.07,1.03,1000
17:19:46.205,-3.62,-4.16,-178.13,-0.49,-0.24,-0.67,0.08,-0.07,1.03,1000
17:19:46.216,-3.62,-4.18,-178.14,-0.43,-0.18,-0.55,0.07,-0.07,1.03,1000
17:19:46.227,-3.63,-4.18,-178.15,-0.55,-0.18,-0.37,0.07,-0.07,1.03,1000
17:19:46.238,-3.64,-4.16,-178.15,-0.49,-0.18,-0.55,0.07,-0.07,1.03,1000
17:19:46.250,-3.66,-4.13,-178.16,-0.24,-0.18,-0.55,0.07,-0.07,1.03,1000
17:19:46.260,-3.67,-4.1,-178.16,-0.43,-0.37,-0.55,0.07,-0.07,1.03,1000
17:19:46.271,-3.67,-4.08,-178.17,-0.43,-0.43,-0.61,0.07,-0.07,1.03,1000
17:19:46.282,-3.67,-4.06,-178.18,-0.43,-0.49,-0.37,0.07,-0.07,1.01,1000
17:19:46.293,-3.68,-4.04,-178.18,-0.06,-0.18,-0.37,0.07,-0.07,1.04,1000
17:19:46.304,-3.68,-4.05,-178.19,-0.49,-0.49,-0.37,0.07,-0.07,1.03,1000
17:19:46.317,-3.69,-4.07,-178.19,-0.12,-0.3,-0.49,0.08,-0.07,1.01,1000
17:19:46.326,-3.7,-4.1,-178.2,0.0,-0.3,-0.61,0.08,-0.06,1.02,1000
17:19:46.337,-3.68,-4.15,-178.2,-0.3,-0.49,-0.55,0.08,-0.06,1.02,1000
17:19:46.352,-3.64,-4.18,-178.21,0.0,0.0,-0.55,0.08,-0.06,1.03,1000
17:19:46.359,-3.62,-4.19,-178.22,-0.79,-0.12,-0.43,0.07,-0.06,1.03,1000
17:19:46.372,-3.59,-4.18,-178.22,-0.67,0.12,-0.43,0.07,-0.06,1.02,1000
17:19:46.381,-3.6,-4.16,-178.22,-0.85,-0.18,-0.37,0.07,-0.07,1.02,1000
17:19:46.392,-3.63,-4.12,-178.23,-0.49,-0.06,-0.55,0.07,-0.07,1.03,1000
17:19:46.403,-3.68,-4.07,-178.24,-0.12,-0.3,-0.67,0.07,-0.07,1.03,1000
17:19:46.414,-3.73,-4.05,-178.24,-0.12,-0.73,-0.37,0.07,-0.07,1.03,1000
17:19:46.425,-3.76,-4.05,-178.25,0.24,-0.73,-0.43,0.08,-0.07,1.03,1000
17:19:46.436,-3.75,-4.09,-178.25,0.12,-0.67,-0.85,0.08,-0.06,1.02,1000
17:19:46.448,-3.71,-4.14,-178.26,0.0,-0.49,-0.61,0.08,-0.06,1.03,1000
17:19:46.458,-3.67,-4.19,-178.27,-0.3,-0.06,-0.43,0.08,-0.06,1.03,1000
17:19:46.486,-3.61,-4.21,-178.27,-0.73,0.3,-0.55,0.07,-0.06,1.02,1000
17:19:46.486,-3.57,-4.18,-178.28,-1.04,0.3,-0.49,0.07,-0.07,1.03,1000
17:19:46.491,-3.58,-4.13,-178.28,-0.79,0.18,-0.3,0.07,-0.07,1.03,1000
17:19:46.502,-3.63,-4.08,-178.28,-0.49,-0.06,-0.43,0.07,-0.08,1.02,1000
17:19:46.513,-3.71,-4.06,-178.29,0.18,-0.37,-0.55,0.07,-0.07,1.03,1000
17:19:46.524,-3.76,-4.06,-178.3,0.37,-0.67,-0.91,0.07,-0.07,1.02,1000
17:19:46.535,-3.77,-4.07,-178.3,0.37,-0.73,-0.73,0.08,-0.07,1.02,1000
17:19:46.546,-3.75,-4.1,-178.31,0.18,-0.67,-0.55,0.08,-0.06,1.02,1000
17:19:46.557,-3.69,-4.14,-178.32,-0.3,-0.3,-0.61,0.08,-0.06,1.02,1000
17:19:46.581,-3.63,-4.17,-178.32,-0.67,0.06,-0.49,0.08,-0.06,1.02,1000
17:19:46.581,-3.58,-4.18,-178.33,-0.98,0.37,-0.43,0.08,-0.06,1.02,1000
17:19:46.590,-3.56,-4.18,-178.33,-0.85,0.3,-0.43,0.07,-0.07,1.02,1000
17:19:46.601,-3.59,-4.17,-178.34,-0.67,0.18,-0.55,0.07,-0.07,1.03,1000
17:19:46.612,-3.66,-4.11,-178.34,-0.37,-0.18,-0.49,0.07,-0.07,1.03,1000
17:19:46.623,-3.71,-4.07,-178.35,0.18,-0.61,-0.61,0.07,-0.07,1.03,1000
17:19:46.636,-3.76,-4.04,-178.36,0.18,-0.85,-0.67,0.07,-0.07,1.03,1000
17:19:46.645,-3.76,-4.05,-178.36,0.43,-0.61,-0.67,0.08,-0.06,1.03,1000
17:19:46.656,-3.72,-4.09,-178.37,0.12,-0.55,-0.61,0.08,-0.06,1.02,1000
17:19:46.667,-3.67,-4.14,-178.38,-0.37,-0.12,-0.37,0.08,-0.06,1.03,1000
17:19:46.684,-3.61,-4.17,-178.38,-0.73,0.12,-0.61,0.08,-0.06,1.02,1000
17:19:46.689,-3.56,-4.19,-178.39,-0.91,0.3,-0.3,0.07,-0.06,1.03,1000
17:19:46.700,-3.56,-4.17,-178.39,-0.85,0.18,-0.49,0.07,-0.07,1.02,1000
17:19:46.711,-3.59,-4.14,-178.39,-0.55,-0.18,-0.43,0.07,-0.07,1.02,1000
17:19:46.722,-3.65,-4.1,-178.4,-0.18,-0.37,-0.3,0.07,-0.07,1.03,1000
17:19:46.733,-3.72,-4.08,-178.4,0.12,-0.73,-0.73,0.07,-0.07,1.03,1000
17:19:46.744,-3.75,-4.07,-178.41,0.49,-0.61,-0.79,0.07,-0.07,1.02,1000
17:19:46.755,-3.74,-4.09,-178.42,0.3,-0.73,-0.61,0.08,-0.06,1.02,1000
17:19:46.770,-3.7,-4.11,-178.43,0.0,-0.43,-0.61,0.08,-0.06,1.03,1000
17:19:46.790,-3.65,-4.13,-178.43,-0.49,-0.12,-0.37,0.08,-0.06,1.03,1000
17:19:46.790,-3.59,-4.16,-178.44,-0.85,0.12,-0.43,0.07,-0.06,1.02,1000
17:19:46.799,-3.57,-4.16,-178.44,-0.85,0.18,-0.3,0.08,-0.06,1.02,1000
17:19:46.810,-3.58,-4.15,-178.44,-0.73,0.06,-0.49,0.07,-0.07,1.03,1000
17:19:46.821,-3.63,-4.12,-178.45,-0.43,-0.18,-0.49,0.07,-0.07,1.02,1000
17:19:46.832,-3.7,-4.08,-178.45,-0.06,-0.43,-0.55,0.07,-0.07,1.02,1000
17:19:46.843,-3.75,-4.06,-178.46,0.12,-0.73,-0.49,0.07,-0.07,1.03,1000
17:19:46.854,-3.77,-4.06,-178.47,0.24,-0.73,-0.73,0.08,-0.06,1.03,1000
17:19:46.865,-3.76,-4.08,-178.48,0.0,-0.61,-0.73,0.08,-0.06,1.03,1000
17:19:46.876,-3.71,-4.11,-178.48,-0.12,-0.18,-0.43,0.08,-0.06,1.03,1000
17:19:46.892,-3.66,-4.14,-178.49,-0.61,0.12,-0.43,0.08,-0.06,1.03,1000
17:19:46.898,-3.62,-4.15,-178.49,-0.85,0.12,-0.3,0.08,-0.06,1.03,1000
17:19:46.909,-3.6,-4.16,-178.49,-0.98,0.18,-0.3,0.07,-0.07,1.02,1000
17:19:46.920,-3.63,-4.14,-178.5,-0.61,0.0,-0.37,0.07,-0.07,1.03,1000
17:19:46.931,-3.68,-4.12,-178.5,-0.24,-0.24,-0.43,0.07,-0.07,1.03,1000
17:19:46.942,-3.72,-4.11,-178.51,0.06,-0.55,-0.61,0.07,-0.07,1.03,1000
17:19:46.953,-3.75,-4.09,-178.51,0.12,-0.73,-0.73,0.07,-0.07,1.02,1000
17:19:46.964,-3.74,-4.09,-178.52,0.18,-0.61,-0.55,0.08,-0.06,1.02,1000
17:19:46.975,-3.71,-4.11,-178.53,-0.12,-0.49,-0.43,0.08,-0.06,1.03,1000
17:19:46.986,-3.67,-4.13,-178.53,-0.37,-0.12,-0.37,0.08,-0.06,1.02,1000
17:19:46.997,-3.62,-4.15,-178.54,-0.85,0.0,-0.3,0.08,-0.06,1.02,1000
17:19:47.009,-3.6,-4.16,-178.54,-0.91,0.06,-0.37,0.07,-0.07,1.03,1000
17:19:47.019,-3.61,-4.16,-178.55,-0.79,0.06,-0.37,0.07,-0.07,1.03,1000
17:19:47.030,-3.63,-4.14,-178.55,-0.37,-0.06,-0.49,0.07,-0.07,1.02,1000
17:19:47.041,-3.68,-4.11,-178.56,-0.12,-0.24,-0.55,0.07,-0.07,1.03,1000
17:19:47.052,-3.72,-4.08,-178.57,0.0,-0.55,-0.73,0.07,-0.07,1.03,1000
17:19:47.063,-3.74,-4.07,-178.57,0.18,-0.61,-0.79,0.08,-0.06,1.03,1000
17:19:47.075,-3.73,-4.09,-178.58,-0.12,-0.49,-0.67,0.08,-0.06,1.03,1000
17:19:47.086,-3.7,-4.11,-178.59,-0.3,-0.37,-0.55,0.07,-0.06,1.02,1000
17:19:47.098,-3.66,-4.12,-178.59,-0.55,-0.18,-0.37,0.07,-0.06,1.02,1000
17:19:47.107,-3.64,-4.14,-178.6,-0.61,0.06,-0.43,0.08,-0.06,1.03,1000
17:19:47.118,-3.63,-4.15,-178.6,-0.61,-0.06,-0.3,0.07,-0.07,1.03,1000
17:19:47.131,-3.65,-4.14,-178.61,-0.61,-0.12,-0.49,0.07,-0.07,1.03,1000
17:19:47.140,-3.68,-4.13,-178.61,-0.3,-0.24,-0.37,0.08,-0.07,1.03,1000
17:19:47.151,-3.7,-4.12,-178.62,0.0,-0.49,-0.61,0.07,-0.07,1.03,1000
17:19:47.164,-3.72,-4.11,-178.62,0.18,-0.43,-0.55,0.07,-0.07,1.03,1000
17:19:47.172,-3.72,-4.11,-178.63,-0.12,-0.37,-0.79,0.07,-0.06,1.02,1000
17:19:47.191,-3.7,-4.11,-178.64,-0.3,-0.37,-0.61,0.08,-0.06,1.02,1000
17:19:47.198,-3.67,-4.12,-178.64,-0.37,-0.3,-0.43,0.08,-0.06,1.03,1000
17:19:47.206,-3.64,-4.14,-178.65,-0.55,0.0,-0.37,0.08,-0.06,1.03,1000
17:19:47.217,-3.63,-4.16,-178.65,-0.49,0.0,-0.37,0.07,-0.07,1.03,1000
17:19:47.228,-3.63,-4.15,-178.66,-0.43,-0.18,-0.61,0.07,-0.07,1.02,1000
17:19:47.240,-3.64,-4.14,-178.66,-0.18,-0.06,-0.49,0.07,-0.07,1.03,1000
17:19:47.251,-3.66,-4.13,-178.67,-0.06,-0.24,-0.73,0.07,-0.07,1.03,1000
17:19:47.261,-3.67,-4.12,-178.68,-0.12,-0.3,-0.61,0.07,-0.07,1.02,1000
17:19:47.273,-3.68,-4.11,-178.68,-0.12,-0.37,-0.61,0.07,-0.07,1.02,1000
17:19:47.283,-3.68,-4.11,-178.69,-0.18,-0.43,-0.43,0.07,-0.06,1.03,1000
17:19:47.299,-3.66,-4.12,-178.69,-0.24,-0.3,-0.37,0.07,-0.06,1.03,1000
17:19:47.305,-3.65,-4.12,-178.7,-0.37,0.0,-0.55,0.08,-0.06,1.02,1000
17:19:47.316,-3.64,-4.14,-178.7,-0.37,-0.18,-0.55,0.07,-0.07,1.02,1000
17:19:47.327,-3.64,-4.14,-178.71,-0.49,-0.18,-0.43,0.08,-0.06,1.03,1000
17:19:47.338,-3.65,-4.14,-178.72,-0.37,-0.24,-0.43,0.07,-0.07,1.02,1000
17:19:47.349,-3.66,-4.13,-178.72,-0.18,-0.18,-0.49,0.07,-0.07,1.02,1000
17:19:47.363,-3.67,-4.13,-178.73,-0.18,-0.37,-0.61,0.07,-0.07,1.03,1000
17:19:47.371,-3.68,-4.12,-178.73,-0.18,-0.12,-0.55,0.07,-0.06,1.03,1000
17:19:47.382,-3.67,-4.12,-178.74,-0.24,-0.37,-0.61,0.07,-0.06,1.02,1000
17:19:47.395,-3.61,-4.07,-178.74,-1.52,-0.43,0.12,0.07,-0.06,1.02,1000
17:19:47.409,-3.61,-4.1,-178.74,-1.22,0.85,-0.12,0.08,-0.09,1.05,1000
17:19:47.415,-3.67,-4.17,-178.75,0.18,1.4,-1.04,0.05,-0.05,1.01,1000
17:19:47.426,-3.68,-4.17,-178.75,0.0,0.67,-1.28,0.08,-0.06,1.0,1000
17:19:47.439,-3.7,-4.15,-178.77,-0.79,0.06,-1.1,0.05,-0.06,1.05,1000
17:19:47.448,-3.64,-4.04,-178.77,-0.61,-1.04,-0.3,0.08,-0.09,1.04,1000
17:19:47.459,-3.66,-4.05,-178.78,-0.37,-0.37,-0.37,0.08,-0.06,1.03,1000
17:19:47.472,-3.66,-4.05,-178.78,-0.3,0.18,-0.37,0.08,-0.07,1.02,1000
17:19:47.481,-3.67,-4.1,-178.78,-0.37,0.24,-0.67,0.07,-0.06,1.03,1000
17:19:47.496,-3.65,-4.1,-178.79,-0.18,-0.61,-0.91,0.07,-0.07,1.03,1000
17:19:47.506,-3.66,-4.09,-178.8,-0.3,0.0,-0.49,0.08,-0.07,1.02,1000
17:19:47.514,-3.66,-4.09,-178.8,0.0,-0.73,-0.18,0.07,-0.07,1.02,1000
17:19:47.526,-3.68,-4.1,-178.8,-0.24,-0.49,-0.37,0.08,-0.07,1.03,1000
17:19:47.536,-3.7,-4.1,-178.81,0.0,-0.37,-0.79,0.07,-0.06,1.02,1000
17:19:47.547,-3.67,-4.1,-178.82,-0.18,-0.79,-0.73,0.08,-0.07,1.03,1000
17:19:47.558,-3.69,-4.11,-178.83,-0.3,-0.49,-0.55,0.07,-0.06,1.02,1000
17:19:47.569,-3.67,-4.11,-178.83,-0.24,-0.37,-0.24,0.08,-0.07,1.02,1000
17:19:47.580,-3.67,-4.15,-178.83,-0.37,-0.06,-0.37,0.07,-0.06,1.03,1000
17:19:47.591,-3.64,-4.12,-178.84,-0.49,0.0,-0.55,0.08,-0.06,1.02,1000
17:19:47.612,-3.64,-4.13,-178.85,-0.67,0.0,-0.73,0.07,-0.07,1.02,1000
17:19:47.613,-3.65,-4.12,-178.85,-0.55,-0.18,-0.37,0.07,-0.07,1.03,1000
17:19:47.624,-3.68,-4.12,-178.86,-0.37,-0.12,-0.55,0.08,-0.07,1.02,1000
17:19:47.635,-3.68,-4.11,-178.86,-0.18,-0.3,-0.37,0.07,-0.06,1.02,1000
17:19:47.646,-3.69,-4.11,-178.87,-0.06,-0.3,-0.73,0.07,-0.07,1.03,1000
17:19:47.657,-3.68,-4.1,-178.88,-0.18,-0.43,-0.85,0.07,-0.06,1.02,1000
17:19:47.668,-3.67,-4.12,-178.89,-0.18,-0.37,-0.55,0.08,-0.07,1.03,1000
17:19:47.679,-3.66,-4.13,-178.89,-0.49,-0.12,-0.37,0.07,-0.06,1.02,1000
17:19:47.692,-3.65,-4.13,-178.89,-0.43,-0.12,-0.55,0.08,-0.06,1.02,1000
17:19:47.703,-3.64,-4.13,-178.9,-0.49,-0.18,-0.43,0.07,-0.06,1.03,1000
17:19:47.712,-3.64,-4.13,-178.91,-0.49,-0.18,-0.55,0.08,-0.07,1.02,1000
17:19:47.723,-3.66,-4.13,-178.91,-0.24,-0.18,-0.43,0.07,-0.06,1.03,1000
17:19:47.735,-3.66,-4.12,-178.92,-0.24,-0.37,-0.37,0.07,-0.07,1.03,1000
17:19:47.745,-3.68,-4.1,-178.92,-0.18,-0.37,-0.79,0.07,-0.06,1.02,1000
17:19:47.757,-3.67,-4.1,-178.93,-0.12,-0.43,-0.73,0.08,-0.07,1.03,1000
17:19:47.767,-3.68,-4.12,-178.94,-0.18,-0.37,-0.61,0.07,-0.07,1.03,1000
17:19:47.778,-3.67,-4.13,-178.94,-0.24,-0.12,-0.61,0.07,-0.06,1.02,1000
17:19:47.789,-3.65,-4.13,-178.95,-0.37,-0.37,-0.43,0.07,-0.07,1.03,1000
17:19:47.808,-3.64,-4.13,-178.96,-0.43,-0.3,-0.43,0.07,-0.06,1.03,1000
17:19:47.815,-3.63,-4.13,-178.96,-0.3,-0.18,-0.67,0.07,-0.07,1.03,1000
17:19:47.822,-3.64,-4.13,-178.97,-0.3,-0.18,-0.43,0.07,-0.07,1.02,1000
17:19:47.833,-3.66,-4.13,-178.97,-0.24,-0.24,-0.49,0.07,-0.07,1.02,1000
17:19:47.844,-3.69,-4.13,-178.98,-0.06,-0.49,-0.55,0.07,-0.07,1.03,1000
17:19:47.855,-3.69,-4.13,-178.98,-0.24,-0.43,-0.37,0.07,-0.07,1.02,1000
17:19:47.866,-3.69,-4.13,-178.99,-0.12,-0.3,-0.37,0.08,-0.07,1.02,1000
17:19:47.877,-3.68,-4.15,-178.99,-0.24,-0.18,-0.37,0.08,-0.06,1.03,1000
17:19:47.888,-3.66,-4.15,-179.0,-0.37,-0.18,-0.55,0.07,-0.06,1.02,1000
17:19:47.899,-3.64,-4.15,-179.0,-0.43,-0.3,-0.37,0.08,-0.06,1.03,1000
17:19:47.910,-3.64,-4.15,-179.01,-0.43,-0.18,-0.37,0.08,-0.07,1.03,1000
17:19:47.921,-3.65,-4.15,-179.01,-0.43,-0.18,-0.49,0.07,-0.07,1.03,1000
17:19:47.932,-3.66,-4.14,-179.02,-0.43,-0.18,-0.49,0.07,-0.06,1.03,1000
17:19:47.943,-3.67,-4.12,-179.03,-0.3,-0.37,-0.37,0.07,-0.06,1.02,1000
17:19:47.954,-3.68,-4.11,-179.03,-0.24,-0.43,-0.49,0.07,-0.07,1.03,1000
17:19:47.965,-3.68,-4.11,-179.04,-0.12,-0.37,-0.61,0.07,-0.07,1.03,1000
17:19:47.976,-3.68,-4.11,-179.04,0.06,-0.24,-0.55,0.08,-0.07,1.03,1000
17:19:47.987,-3.67,-4.12,-179.05,-0.18,-0.18,-0.49,0.07,-0.07,1.02,1000
17:19:48.001,-3.66,-4.11,-179.06,-0.37,-0.12,-0.55,0.08,-0.07,1.02,1000
17:19:48.011,-3.65,-4.12,-179.06,-0.43,-0.18,-0.61,0.07,-0.07,1.03,1000
17:19:48.020,-3.65,-4.12,-179.07,-0.37,-0.18,-0.43,0.07,-0.07,1.03,1000
17:19:48.031,-3.65,-4.13,-179.07,-0.3,-0.18,-0.49,0.08,-0.06,1.03,1000
17:19:48.042,-3.65,-4.13,-179.08,-0.24,-0.24,-0.49,0.07,-0.07,1.02,1000
17:19:48.053,-3.67,-4.13,-179.08,-0.24,-0.3,-0.73,0.08,-0.06,1.03,1000
17:19:48.064,-3.67,-4.13,-179.09,-0.06,-0.24,-0.55,0.07,-0.07,1.03,1000
17:19:48.075,-3.66,-4.13,-179.1,-0.37,-0.3,-0.49,0.07,-0.06,1.02,1000
17:19:48.087,-3.65,-4.13,-179.1,-0.18,-0.37,-0.24,0.07,-0.07,1.02,1000
17:19:48.101,-3.65,-4.13,-179.11,-0.43,-0.12,-0.55,0.07,-0.06,1.02,1000
17:19:48.121,-3.64,-4.13,-179.11,-0.37,-0.3,-0.61,0.07,-0.07,1.02,1000
17:19:48.121,-3.65,-4.13,-179.12,-0.49,-0.18,-0.43,0.08,-0.07,1.02,1000
17:19:48.130,-3.65,-4.15,-179.12,-0.37,-0.06,-0.55,0.08,-0.07,1.03,1000
17:19:48.141,-3.65,-4.14,-179.13,-0.37,-0.24,-0.43,0.07,-0.07,1.03,1000
17:19:48.152,-3.65,-4.13,-179.13,-0.37,-0.24,-0.49,0.07,-0.06,1.02,1000
17:19:48.163,-3.65,-4.12,-179.14,-0.18,-0.18,-0.67,0.07,-0.07,1.02,1000
17:19:48.174,-3.66,-4.12,-179.15,-0.24,-0.3,-0.43,0.07,-0.07,1.02,1000
17:19:48.185,-3.66,-4.12,-179.15,-0.18,-0.3,-0.49,0.08,-0.06,1.03,1000
17:19:48.196,-3.65,-4.13,-179.16,-0.3,-0.3,-0.37,0.07,-0.07,1.03,1000
17:19:48.207,-3.65,-4.13,-179.16,-0.43,-0.18,-0.55,0.07,-0.06,1.02,1000
17:19:48.218,-3.64,-4.13,-179.17,-0.43,-0.18,-0.61,0.08,-0.06,1.02,1000
17:19:48.229,-3.64,-4.14,-179.18,-0.24,-0.18,-0.55,0.07,-0.07,1.03,1000
17:19:48.241,-3.65,-4.14,-179.18,-0.49,-0.18,-0.55,0.08,-0.07,1.03,1000
17:19:48.251,-3.66,-4.14,-179.19,-0.3,-0.18,-0.67,0.07,-0.06,1.02,1000
17:19:48.263,-3.67,-4.14,-179.19,-0.24,-0.24,-0.43,0.07,-0.07,1.02,1000
17:19:48.275,-3.67,-4.14,-179.2,-0.3,-0.49,-0.37,0.07,-0.06,1.03,1000
17:19:48.284,-3.66,-4.14,-179.21,-0.3,-0.24,-0.43,0.07,-0.07,1.03,1000
17:19:48.295,-3.67,-4.14,-179.21,-0.43,-0.24,-0.55,0.07,-0.06,1.03,1000
17:19:48.306,-3.66,-4.14,-179.22,-0.24,0.37,-0.67,0.07,-0.06,1.01,1000
17:19:48.318,-3.86,-4.44,-179.23,3.6,6.16,-1.4,0.22,-0.16,0.99,1000
17:19:48.328,-4.14,-4.98,-179.23,5.06,8.29,0.79,0.0,0.02,1.13,1000
17:19:48.339,-3.69,-4.61,-179.22,-1.71,3.84,1.52,0.01,0.01,0.95,1000
17:19:48.350,-3.21,-4.03,-179.21,-5.18,-1.59,1.46,0.03,-0.04,0.99,1000
17:19:48.361,-2.99,-3.57,-179.19,-6.28,-3.6,2.13,0.06,-0.07,1.12,1000
17:19:48.372,-3.07,-3.52,-179.16,-3.9,-1.95,3.48,0.12,-0.11,1.02,1000
17:19:48.383,-3.46,-3.89,-179.11,0.61,1.1,4.82,0.09,-0.1,1.0,1000
17:19:48.394,-3.88,-4.03,-179.05,1.4,1.4,5.12,0.04,-0.08,1.05,1000
17:19:48.408,-4.01,-3.79,-179.0,-0.06,-1.95,4.02,0.04,-0.05,1.02,1000
17:19:48.421,-3.94,-3.59,-178.96,0.43,-3.35,2.62,0.07,-0.07,1.02,1000
17:19:48.429,-3.93,-3.57,-178.94,0.73,-2.62,0.91,0.09,-0.09,1.04,1000
17:19:48.438,-4.04,-3.77,-178.94,1.83,-0.43,-1.1,0.11,-0.08,1.02,1000
17:19:48.449,-4.07,-4.03,-178.96,2.74,0.43,-2.38,0.07,-0.06,1.03,1000
17:19:48.460,-3.94,-4.08,-178.99,1.59,-0.3,-2.56,0.05,-0.05,1.03,1000
17:19:48.471,-3.71,-3.96,-179.01,-0.37,-1.4,-1.1,0.07,-0.05,1.02,1000
17:19:48.482,-3.52,-3.92,-179.02,-1.28,-1.34,0.49,0.08,-0.05,1.02,1000
17:19:48.493,-3.44,-4.02,-179.01,-1.34,0.55,1.04,0.1,-0.07,1.03,1000
17:19:48.504,-3.46,-4.17,-179.0,-1.34,1.83,0.37,0.07,-0.06,1.02,1000
17:19:48.515,-3.46,-4.2,-179.0,-1.4,1.4,-1.04,0.07,-0.07,1.03,1000
17:19:48.528,-3.52,-4.15,-179.02,-1.34,0.67,-1.22,0.06,-0.07,1.03,1000
17:19:48.538,-3.57,-4.03,-179.02,-1.04,-0.3,0.18,0.07,-0.07,1.02,1000
17:19:48.548,-3.67,-3.95,-179.02,-0.85,-0.43,0.85,0.07,-0.07,1.03,1000
17:19:48.559,-3.69,-3.87,-179.0,-1.22,-0.98,1.1,0.06,-0.05,1.02,1000
17:19:48.570,-3.61,-3.82,-178.99,-1.46,-1.34,2.01,0.07,-0.06,1.02,1000
17:19:48.583,-3.57,-3.83,-178.96,-1.65,-0.85,2.8,0.07,-0.08,1.02,1000
17:19:48.592,-3.64,-3.89,-178.93,-1.28,-0.12,2.62,0.09,-0.08,1.02,1000
17:19:48.604,-3.74,-3.99,-178.91,-0.37,-0.24,0.91,0.07,-0.07,1.03,1000
17:19:48.614,-3.8,-3.98,-178.91,-0.12,-0.43,-1.22,0.07,-0.08,1.03,1000
17:19:48.625,-3.89,-3.95,-178.93,0.3,-0.73,-2.01,0.07,-0.07,1.02,1000
17:19:48.636,-3.91,-3.93,-178.95,0.85,-1.22,-1.1,0.07,-0.07,1.03,1000
17:19:48.647,-3.94,-3.92,-178.96,0.79,-0.98,-0.12,0.07,-0.07,1.02,1000
17:19:48.658,-3.93,-3.94,-178.96,0.67,-0.61,-0.55,0.08,-0.06,1.03,1000
17:19:48.669,-3.88,-4.0,-178.97,1.16,-0.49,-1.52,0.08,-0.07,1.03,1000
17:19:48.680,-3.84,-4.08,-178.99,0.91,0.12,-1.77,0.07,-0.06,1.03,1000
17:19:48.691,-3.76,-4.09,-179.01,0.43,-0.12,-1.22,0.07,-0.05,1.03,1000
17:19:48.702,-3.62,-4.05,-179.01,-0.79,-0.73,0.0,0.06,-0.04,1.03,1000
17:19:48.716,-3.49,-3.99,-179.01,-2.2,-0.91,0.85,0.08,-0.06,1.03,1000
17:19:48.730,-3.43,-4.02,-179.0,-2.32,0.12,0.79,0.09,-0.07,1.02,1000
17:19:48.738,-3.48,-4.14,-179.0,-1.16,1.1,-0.49,0.09,-0.08,1.03,1000
17:19:48.747,-3.61,-4.21,-179.01,-0.55,1.22,-1.04,0.07,-0.08,1.03,1000
17:19:48.759,-3.71,-4.16,-179.02,-0.18,0.18,-0.85,0.05,-0.07,1.03,1000
17:19:48.769,-3.74,-4.02,-179.02,-0.55,-1.4,0.12,0.06,-0.06,1.02,1000
17:19:48.779,-3.77,-3.89,-179.02,-0.49,-1.71,0.55,0.08,-0.08,1.02,1000
17:19:48.792,-3.83,-3.92,-179.02,0.18,-0.85,-0.18,0.08,-0.08,1.03,1000
17:19:48.801,-3.86,-4.02,-179.02,0.85,0.0,-1.52,0.08,-0.07,1.03,1000
17:19:48.812,-3.85,-4.08,-179.04,0.43,0.0,-1.59,0.06,-0.06,1.03,1000
17:19:48.827,-3.78,-4.04,-179.05,-0.3,-0.49,-0.67,0.06,-0.06,1.02,1000
17:19:48.837,-3.7,-4.01,-179.06,-0.85,-0.91,0.37,0.08,-0.06,1.02,1000
17:19:48.845,-3.64,-4.03,-179.05,-0.91,-0.12,0.24,0.08,-0.07,1.03,1000
17:19:48.856,-3.65,-4.1,-179.06,-0.61,0.61,-0.73,0.08,-0.07,1.03,1000
17:19:48.867,-3.67,-4.14,-179.07,-0.37,0.55,-1.16,0.07,-0.07,1.03,1000
17:19:48.878,-3.7,-4.09,-179.08,-0.3,0.06,-0.67,0.06,-0.07,1.03,1000
17:19:48.889,-3.73,-4.0,-179.08,-0.43,-0.61,-0.12,0.06,-0.07,1.03,1000
17:19:48.900,-3.75,-3.95,-179.08,-0.24,-0.73,-0.24,0.08,-0.07,1.03,1000
17:19:48.911,-3.78,-3.97,-179.08,0.06,-0.67,-0.67,0.08,-0.07,1.03,1000
17:19:48.923,-3.78,-4.0,-179.09,0.06,-0.3,-0.91,0.08,-0.07,1.02,1000
17:19:48.933,-3.75,-4.02,-179.11,0.0,-0.37,-1.04,0.07,-0.06,1.03,1000
17:19:48.945,-3.72,-4.02,-179.11,-0.49,-0.24,-0.37,0.07,-0.06,1.02,1000
17:19:48.956,-3.69,-4.03,-179.11,-0.85,-0.18,-0.18,0.08,-0.06,1.03,1000
17:19:48.967,-3.67,-4.05,-179.11,-0.79,-0.18,-0.37,0.08,-0.07,1.03,1000
17:19:48.977,-3.68,-4.07,-179.12,-0.43,0.3,-0.79,0.07,-0.07,1.03,1000
17:19:48.988,-3.7,-4.05,-179.13,-0.43,0.0,-0.85,0.07,-0.07,1.03,1000
17:19:48.999,-3.73,-4.01,-179.13,-0.37,-0.24,-0.49,0.07,-0.07,1.02,1000
17:19:49.010,-3.76,-3.97,-179.14,-0.18,-0.67,-0.24,0.07,-0.07,1.03,1000
17:19:49.023,-3.78,-3.97,-179.14,0.0,-0.67,-0.49,0.08,-0.07,1.03,1000
17:19:49.046,-3.79,-4.0,-179.15,0.12,-0.43,-0.85,0.08,-0.06,1.02,1000
17:19:49.046,-3.77,-4.04,-179.16,0.0,-0.18,-0.98,0.07,-0.06,1.03,1000
17:19:49.054,-3.73,-4.06,-179.17,-0.37,-0.18,-0.37,0.07,-0.06,1.03,1000
17:19:49.065,-3.69,-4.06,-179.17,-0.67,-0.18,-0.37,0.08,-0.06,1.02,1000
17:19:49.076,-3.67,-4.07,-179.17,-0.73,-0.24,-0.24,0.07,-0.07,1.02,1000
17:19:49.087,-3.68,-4.08,-179.17,-0.43,0.06,-0.49,0.07,-0.07,1.03,1000
17:19:49.099,-3.72,-4.08,-179.18,-0.3,0.12,-0.73,0.07,-0.07,1.03,1000
17:19:49.109,-3.75,-4.06,-179.19,-0.24,-0.18,-0.85,0.07,-0.07,1.02,1000
17:19:49.120,-3.77,-4.01,-179.19,-0.18,-0.55,-0.43,0.07,-0.07,1.03,1000
17:19:49.145,-3.77,-3.99,-179.2,-0.18,-0.55,-0.43,0.07,-0.07,1.03,1000
17:19:49.146,-3.77,-4.0,-179.2,-0.12,-0.55,-0.61,0.08,-0.07,1.03,1000
17:19:49.153,-3.75,-4.03,-179.21,-0.24,-0.24,-0.61,0.07,-0.07,1.02,1000
17:19:49.164,-3.73,-4.05,-179.22,-0.3,0.06,-0.67,0.07,-0.07,1.02,1000
17:19:49.175,-3.71,-4.06,-179.22,-0.37,-0.18,-0.37,0.07,-0.06,1.03,1000
17:19:49.186,-3.69,-4.06,-179.23,-0.67,0.0,-0.37,0.07,-0.07,1.02,1000
17:19:49.197,-3.69,-4.05,-179.23,-0.67,-0.12,-0.49,0.07,-0.07,1.03,1000
17:19:49.208,-3.71,-4.04,-179.24,-0.49,0.06,-0.55,0.07,-0.07,1.03,1000
17:19:49.220,-3.74,-4.02,-179.25,-0.18,-0.18,-0.61,0.07,-0.07,1.02,1000
17:19:49.230,-3.76,-4.0,-179.25,0.0,-0.49,-0.55,0.07,-0.07,1.03,1000
17:19:49.241,-3.77,-3.99,-179.26,0.06,-0.49,-0.55,0.07,-0.07,1.03,1000
17:19:49.252,-3.77,-4.0,-179.26,-0.06,-0.37,-0.55,0.07,-0.07,1.03,1000
17:19:49.263,-3.75,-4.03,-179.27,-0.37,-0.3,-0.67,0.07,-0.07,1.03,1000
17:19:49.274,-3.72,-4.05,-179.28,-0.43,0.0,-0.61,0.07,-0.06,1.02,1000
17:19:49.285,-3.69,-4.06,-179.29,-0.61,-0.24,-0.43,0.07,-0.07,1.02,1000
17:19:49.296,-3.68,-4.06,-179.29,-0.73,-0.12,-0.43,0.07,-0.07,1.03,1000
17:19:49.307,-3.68,-4.05,-179.29,-0.43,-0.24,-0.43,0.07,-0.07,1.03,1000
17:19:49.318,-3.71,-4.04,-179.3,-0.24,-0.24,-0.49,0.07,-0.07,1.03,1000
17:19:49.330,-3.73,-4.03,-179.31,0.0,-0.24,-0.55,0.07,-0.07,1.03,1000
17:19:49.357,-3.75,-4.02,-179.31,-0.06,-0.49,-0.43,0.07,-0.07,1.03,1000
17:19:49.358,-3.76,-4.0,-179.32,-0.06,-0.49,-0.43,0.07,-0.07,1.03,1000
17:19:49.363,-3.75,-4.0,-179.32,-0.18,-0.43,-0.37,0.07,-0.07,1.03,1000
17:19:49.373,-3.74,-4.01,-179.33,-0.24,-0.37,-0.55,0.08,-0.07,1.02,1000
17:19:49.384,-3.73,-4.03,-179.34,-0.3,-0.12,-0.61,0.08,-0.07,1.03,1000
17:19:49.400,-3.71,-4.04,-179.34,-0.37,-0.06,-0.55,0.07,-0.07,1.02,1000
17:19:49.418,-3.71,-4.04,-179.35,-0.67,-0.12,-0.37,0.07,-0.07,1.02,1000
17:19:49.419,-3.71,-4.03,-179.35,-0.55,-0.18,-0.37,0.07,-0.07,1.03,1000
17:19:49.432,-3.73,-4.02,-179.36,-0.49,-0.12,-0.67,0.07,-0.07,1.02,1000
17:19:49.445,-3.74,-4.02,-179.36,-0.18,-0.3,-0.37,0.07,-0.07,1.02,1000
17:19:49.458,-3.76,-4.01,-179.37,-0.06,-0.37,-0.67,0.07,-0.07,1.03,1000
17:19:49.461,-3.76,-4.01,-179.37,0.12,-0.43,-0.55,0.07,-0.07,1.03,1000
17:19:49.472,-3.76,-4.01,-179.38,-0.06,-0.37,-0.43,0.07,-0.06,1.02,1000
17:19:49.485,-3.74,-4.02,-179.39,-0.49,-0.37,-0.55,0.07,-0.07,1.02,1000
17:19:49.494,-3.73,-4.03,-179.39,-0.3,0.06,-0.37,0.07,-0.07,1.02,1000
17:19:49.505,-3.73,-4.05,-179.4,-0.49,-0.18,-0.55,0.07,-0.06,1.03,1000
17:19:49.516,-3.72,-4.05,-179.4,-0.43,-0.18,-0.61,0.07,-0.07,1.02,1000
17:19:49.527,-3.73,-4.04,-179.41,-0.49,-0.06,-0.37,0.07,-0.07,1.02,1000
17:19:49.538,-3.74,-4.03,-179.41,-0.24,-0.18,-0.37,0.07,-0.06,1.03,1000
17:19:49.554,-3.75,-4.02,-179.42,-0.24,-0.37,-0.49,0.07,-0.07,1.03,1000
17:19:49.560,-3.76,-4.01,-179.43,-0.24,-0.24,-0.67,0.07,-0.07,1.03,1000
17:19:49.571,-3.76,-4.02,-179.43,-0.18,-0.18,-0.55,0.07,-0.07,1.03,1000
17:19:49.582,-3.75,-4.03,-179.44,-0.18,-0.3,-0.67,0.07,-0.07,1.03,1000
17:19:49.593,-3.74,-4.04,-179.45,-0.37,-0.18,-0.61,0.07,-0.06,1.03,1000
17:19:49.604,-3.72,-4.04,-179.45,-0.43,-0.18,-0.55,0.07,-0.07,1.03,1000
17:19:49.617,-3.72,-4.04,-179.46,-0.49,-0.12,-0.37,0.07,-0.07,1.02,1000
17:19:49.626,-3.72,-4.03,-179.46,-0.37,-0.18,-0.37,0.07,-0.07,1.03,1000
17:19:49.637,-3.72,-4.02,-179.47,-0.37,-0.18,-0.55,0.07,-0.07,1.02,1000
17:19:49.649,-3.73,-4.01,-179.47,-0.18,-0.18,-0.43,0.07,-0.07,1.03,1000
17:19:49.659,-3.74,-4.01,-179.48,-0.24,-0.37,-0.55,0.07,-0.07,1.03,1000
17:19:49.670,-3.75,-4.0,-179.48,-0.18,-0.24,-0.61,0.07,-0.07,1.02,1000
17:19:49.681,-3.74,-4.0,-179.49,-0.24,-0.3,-0.55,0.07,-0.07,1.02,1000
17:19:49.692,-3.74,-4.01,-179.5,-0.3,-0.37,-0.49,0.07,-0.07,1.03,1000
17:19:49.703,-3.74,-4.02,-179.5,-0.37,-0.18,-0.61,0.07,-0.07,1.03,1000
17:19:49.714,-3.73,-4.04,-179.51,-0.49,-0.18,-0.55,0.07,-0.07,1.03,1000
17:19:49.725,-3.73,-4.05,-179.51,-0.43,-0.12,-0.43,0.07,-0.07,1.03,1000
17:19:49.740,-3.73,-4.04,-179.52,-0.37,-0.18,-0.67,0.07,-0.07,1.03,1000
17:19:49.749,-3.72,-4.04,-179.52,-0.43,-0.18,-0.49,0.07,-0.07,1.02,1000
17:19:49.763,-3.73,-4.03,-179.53,-0.37,-0.43,-0.18,0.07,-0.07,1.03,1000
17:19:49.769,-3.73,-4.02,-179.54,-0.24,-0.37,-0.61,0.07,-0.07,1.03,1000
17:19:49.780,-3.74,-4.02,-179.54,-0.3,-0.37,-0.61,0.07,-0.06,1.03,1000
17:19:49.791,-3.74,-4.02,-179.55,-0.24,-0.24,-0.49,0.07,-0.07,1.02,1000
17:19:49.802,-3.73,-4.03,-179.55,-0.24,-0.12,-0.55,0.07,-0.07,1.02,1000
17:19:49.813,-3.72,-4.04,-179.56,-0.3,-0.24,-0.49,0.07,-0.07,1.03,1000
17:19:49.824,-3.72,-4.04,-179.56,-0.24,-0.12,-0.37,0.08,-0.07,1.02,1000
17:19:49.835,-3.72,-4.05,-179.57,-0.49,-0.18,-0.37,0.07,-0.07,1.02,1000
17:19:49.854,-3.72,-4.05,-179.58,-0.43,-0.24,-0.61,0.07,-0.07,1.02,1000
17:19:49.864,-3.73,-4.05,-179.58,-0.3,-0.24,-0.79,0.07,-0.07,1.03,1000
17:19:49.868,-3.74,-4.05,-179.59,-0.12,-0.24,-0.37,0.07,-0.07,1.03,1000
17:19:49.879,-3.74,-4.03,-179.59,-0.24,-0.3,-0.49,0.07,-0.07,1.02,1000
17:19:49.890,-3.73,-4.03,-179.6,-0.37,-0.3,-0.55,0.07,-0.07,1.03,1000
17:19:49.901,-3.72,-4.03,-179.61,-0.18,-0.18,-0.43,0.08,-0.07,1.03,1000
17:19:49.913,-3.72,-4.04,-179.61,-0.3,-0.24,-0.37,0.07,-0.07,1.02,1000
17:19:49.923,-3.72,-4.04,-179.62,-0.3,-0.18,-0.49,0.07,-0.07,1.02,1000
17:19:49.934,-3.73,-4.06,-179.62,-0.49,-0.24,-0.67,0.07,-0.07,1.02,1000
17:19:49.945,-3.73,-4.05,-179.63,-0.24,-0.18,-0.49,0.07,-0.07,1.03,1000
17:19:49.957,-3.73,-4.04,-179.63,-0.37,-0.18,-0.37,0.07,-0.07,1.02,1000
17:19:49.967,-3.74,-4.02,-179.64,-0.37,-0.24,-0.61,0.07,-0.07,1.03,1000
17:19:49.978,-3.74,-4.01,-179.65,-0.37,-0.18,-0.49,0.07,-0.07,1.03,1000
17:19:49.989,-3.75,-4.01,-179.65,-0.24,-0.12,-0.37,0.07,-0.07,1.02,1000
17:19:50.002,-3.75,-4.01,-179.66,-0.24,-0.24,-0.67,0.07,-0.07,1.03,1000
17:19:50.011,-3.75,-4.01,-179.66,-0.3,-0.3,-0.55,0.07,-0.07,1.02,1000
17:19:50.023,-3.75,-4.01,-179.67,-0.37,-0.37,-0.37,0.07,-0.07,1.02,1000
17:19:50.033,-3.74,-4.01,-179.68,-0.24,-0.24,-0.67,0.07,-0.07,1.02,1000
17:19:50.047,-3.74,-4.02,-179.68,-0.37,-0.37,-0.43,0.07,-0.07,1.02,1000
17:19:50.059,-3.74,-4.02,-179.69,-0.43,-0.18,-0.49,0.07,-0.07,1.03,1000
17:19:50.068,-3.74,-4.02,-179.69,-0.18,-0.24,-0.55,0.07,-0.07,1.03,1000
17:19:50.080,-3.74,-4.02,-179.7,-0.37,-0.24,-0.55,0.07,-0.07,1.03,1000
17:19:50.090,-3.74,-4.02,-179.7,-0.18,-0.3,-0.43,0.07,-0.07,1.03,1000
17:19:50.101,-3.75,-4.02,-179.71,-0.18,-0.18,-0.49,0.07,-0.06,1.03,1000
17:19:50.112,-3.74,-4.01,-179.72,-0.3,-0.24,-0.37,0.07,-0.06,1.03,1000
17:19:50.128,-3.74,-4.01,-179.72,-0.37,-0.18,-0.55,0.07,-0.07,1.03,1000
17:19:50.137,-3.73,-4.02,-179.73,-0.37,-0.12,-0.55,0.07,-0.07,1.03,1000
17:19:50.152,-3.73,-4.02,-179.73,-0.43,-0.18,-0.61,0.07,-0.07,1.03,1000
17:19:50.163,-3.72,-4.03,-179.74,-0.37,-0.18,-0.55,0.07,-0.06,1.03,1000
17:19:50.171,-3.71,-4.03,-179.74,-0.3,-0.18,-0.37,0.07,-0.07,1.02,1000
17:19:50.176,-3.71,-4.03,-179.75,-0.3,-0.18,-0.49,0.07,-0.07,1.03,1000
17:19:50.187,-3.71,-4.03,-179.76,-0.43,-0.18,-0.67,0.07,-0.07,1.02,1000
17:19:50.198,-3.72,-4.03,-179.76,-0.24,-0.18,-0.55,0.07,-0.07,1.03,1000
17:19:50.209,-3.73,-4.03,-179.77,-0.18,-0.24,-0.55,0.07,-0.07,1.03,1000
17:19:50.220,-3.73,-4.03,-179.77,-0.3,-0.24,-0.49,0.07,-0.07,1.03,1000
17:19:50.232,-3.73,-4.02,-179.78,-0.37,-0.12,-0.61,0.07,-0.07,1.02,1000
17:19:50.244,-3.72,-4.03,-179.79,-0.3,-0.18,-0.49,0.07,-0.07,1.03,1000
17:19:50.253,-3.71,-4.03,-179.79,-0.43,-0.37,-0.73,0.07,-0.07,1.02,1000
17:19:50.273,-3.71,-4.04,-179.8,-0.37,-0.24,-0.61,0.07,-0.07,1.03,1000
17:19:50.275,-3.71,-4.03,-179.8,-0.37,-0.24,-0.49,0.07,-0.07,1.03,1000
17:19:50.288,-3.71,-4.03,-179.81,-0.37,-0.3,-0.49,0.07,-0.07,1.03,1000
17:19:50.299,-3.72,-4.03,-179.81,-0.37,-0.18,-0.49,0.07,-0.07,1.03,1000
17:19:50.308,-3.73,-4.03,-179.82,-0.3,-0.37,-0.43,0.07,-0.07,1.02,1000
17:19:50.324,-3.73,-4.02,-179.82,-0.37,-0.37,-0.49,0.07,-0.07,1.02,1000
17:19:50.330,-3.72,-4.02,-179.83,-0.37,-0.37,-0.67,0.07,-0.06,1.03,1000
17:19:50.341,-3.72,-4.02,-179.84,-0.3,-0.24,-0.67,0.07,-0.07,1.03,1000
17:19:50.355,-3.71,-4.02,-179.84,-0.18,-0.3,-0.55,0.07,-0.07,1.03,1000
17:19:50.363,-3.71,-4.03,-179.85,-0.3,-0.12,-0.37,0.08,-0.07,1.03,1000
17:19:50.376,-3.71,-4.03,-179.86,-0.37,-0.24,-0.43,0.07,-0.07,1.02,1000
17:19:50.385,-3.71,-4.03,-179.86,-0.43,-0.18,-0.43,0.07,-0.07,1.03,1000
17:19:50.396,-3.71,-4.02,-179.87,-0.37,-0.18,-0.49,0.07,-0.07,1.02,1000
17:19:50.409,-3.71,-4.02,-179.87,-0.37,-0.18,-0.55,0.07,-0.06,1.02,1000
17:19:50.418,-3.71,-4.01,-179.88,-0.37,-0.3,-0.37,0.07,-0.07,1.03,1000
17:19:50.430,-3.71,-4.01,-179.89,-0.37,-0.3,-0.55,0.07,-0.07,1.02,1000
17:19:50.440,-3.71,-4.01,-179.89,-0.24,-0.18,-0.55,0.07,-0.07,1.02,1000
17:19:50.451,-3.71,-4.01,-179.9,-0.37,-0.3,-0.55,0.07,-0.07,1.02,1000
17:19:50.470,-3.71,-4.02,-179.9,-0.3,-0.24,-0.49,0.07,-0.07,1.03,1000
17:19:50.476,-3.71,-4.04,-179.91,-0.24,-0.18,-0.61,0.07,-0.07,1.02,1000
17:19:50.484,-3.71,-4.04,-179.91,-0.43,-0.18,-0.43,0.07,-0.07,1.02,1000
17:19:50.495,-3.71,-4.03,-179.92,-0.37,-0.24,-0.55,0.07,-0.07,1.02,1000
17:19:50.506,-3.71,-4.03,-179.92,-0.37,-0.18,-0.55,0.07,-0.07,1.02,1000
17:19:50.517,-3.71,-4.02,-179.93,-0.24,-0.37,-0.49,0.07,-0.06,1.02,1000
17:19:50.528,-3.7,-4.03,-179.94,-0.3,-0.18,-0.55,0.07,-0.07,1.03,1000
17:19:50.539,-3.71,-4.03,-179.94,-0.12,-0.18,-0.37,0.07,-0.07,1.03,1000
17:19:50.550,-3.71,-4.04,-179.95,-0.24,-0.18,-0.67,0.07,-0.06,1.03,1000
17:19:50.561,-3.7,-4.04,-179.95,-0.18,-0.24,-0.55,0.07,-0.07,1.02,1000
17:19:50.579,-3.7,-4.03,-179.96,-0.18,-0.18,-0.43,0.07,-0.07,1.02,1000
17:19:50.583,-3.7,-4.03,-179.96,-0.37,-0.3,-0.61,0.07,-0.06,1.03,1000
17:19:50.595,-3.69,-4.03,-179.97,-0.43,-0.3,-0.43,0.07,-0.07,1.03,1000
17:19:50.605,-3.69,-4.03,-179.98,-0.49,-0.37,-0.55,0.07,-0.07,1.02,1000
17:19:50.616,-3.69,-4.03,-179.98,-0.3,-0.49,-0.55,0.07,-0.07,1.03,1000
17:19:50.627,-3.7,-4.03,-179.99,-0.24,-0.24,-0.43,0.07,-0.07,1.02,1000
17:19:50.638,-3.7,-4.02,-179.99,-0.3,-0.12,-0.61,0.07,-0.07,1.02,1000
17:19:50.649,-3.71,-4.01,-180.0,-0.3,-0.24,-0.67,0.07,-0.07,1.02,1000
17:19:50.661,-3.71,-4.02,-180.0,-0.3,-0.24,-0.73,0.07,-0.06,1.02,1000
17:19:50.680,-3.71,-4.02,-180.01,-0.24,-0.3,-0.73,0.07,-0.07,1.02,1000
17:19:50.682,-3.71,-4.02,-180.02,-0.37,-0.18,-0.67,0.07,-0.07,1.02,1000
17:19:50.693,-3.7,-4.03,-180.02,-0.37,-0.18,-0.55,0.07,-0.07,1.02,1000
17:19:50.704,-3.7,-4.03,-180.03,-0.37,-0.12,-0.61,0.07,-0.07,1.02,1000
17:19:50.715,-3.71,-4.03,-180.04,-0.3,0.0,-0.3,0.07,-0.07,1.03,1000
17:19:50.726,-3.71,-4.03,-180.04,-0.3,-0.18,-0.61,0.07,-0.07,1.03,1000
17:19:50.737,-3.72,-4.03,-180.05,-0.37,-0.37,-0.61,0.07,-0.06,1.03,1000
17:19:50.749,-3.72,-4.04,-180.05,-0.18,-0.24,-0.61,0.07,-0.07,1.03,1000
17:19:50.759,-3.72,-4.03,-180.06,-0.18,-0.3,-0.73,0.07,-0.07,1.03,1000
17:19:50.775,-3.73,-4.03,-180.06,-0.37,-0.18,-0.37,0.07,-0.07,1.03,1000
17:19:50.784,-3.72,-4.03,-180.07,-0.49,-0.3,-0.61,0.07,-0.07,1.03,1000
17:19:50.792,-3.71,-4.03,-180.08,-0.43,-0.24,-0.49,0.07,-0.07,1.02,1000
17:19:50.804,-3.71,-4.03,-180.08,-0.3,-0.24,-0.37,0.07,-0.07,1.03,1000
17:19:50.814,-3.72,-4.03,-180.09,-0.37,-0.18,-0.37,0.07,-0.07,1.02,1000
17:19:50.840,-3.72,-4.02,-180.09,-0.37,-0.43,-0.43,0.07,-0.07,1.02,1000
17:19:50.840,-3.72,-4.02,-180.1,-0.18,-0.24,-0.55,0.07,-0.07,1.03,1000
17:19:50.847,-3.73,-4.02,-180.1,-0.24,-0.18,-0.67,0.07,-0.07,1.03,1000
17:19:50.858,-3.73,-4.02,-180.11,-0.12,-0.24,-0.43,0.07,-0.07,1.02,1000
17:19:50.869,-3.73,-4.03,-180.11,-0.24,-0.3,-0.55,0.07,-0.07,1.02,1000
17:19:50.883,-3.73,-4.04,-180.12,-0.24,-0.3,-0.49,0.07,-0.07,1.02,1000
17:19:50.891,-3.73,-4.04,-180.12,-0.18,-0.24,-0.37,0.07,-0.07,1.03,1000
17:19:50.902,-3.73,-4.04,-180.13,-0.3,-0.24,-0.55,0.07,-0.06,1.03,1000
17:19:50.913,-3.72,-4.04,-180.14,-0.3,-0.3,-0.55,0.07,-0.07,1.02,1000
17:19:50.925,-3.71,-4.04,-180.14,-0.43,-0.37,-0.61,0.07,-0.07,1.02,1000
17:19:50.937,-3.71,-4.04,-180.15,-0.24,-0.18,-0.49,0.07,-0.07,1.02,1000
17:19:50.946,-3.71,-4.05,-180.15,-0.37,-0.37,-0.61,0.07,-0.07,1.03,1000
17:19:50.957,-3.71,-4.05,-180.16,-0.24,-0.12,-0.49,0.07,-0.06,1.03,1000
17:19:50.968,-3.71,-4.05,-180.16,-0.37,-0.18,-0.73,0.07,-0.07,1.02,1000
17:19:50.981,-3.7,-4.05,-180.17,-0.3,-0.3,-0.49,0.07,-0.07,1.02,1000
17:19:50.994,-3.7,-4.04,-180.18,-0.37,-0.24,-0.37,0.07,-0.07,1.03,1000
17:19:51.001,-3.71,-4.04,-180.18,-0.37,-0.06,-0.37,0.07,-0.07,1.02,1000
17:19:51.013,-3.71,-4.04,-180.19,-0.12,-0.24,-0.49,0.07,-0.07,1.02,1000
17:19:51.023,-3.7,-4.04,-180.19,-0.24,-0.3,-0.55,0.07,-0.06,1.03,1000
17:19:51.034,-3.7,-4.04,-180.2,-0.37,-0.24,-0.61,0.07,-0.07,1.02,1000
17:19:51.045,-3.7,-4.04,-180.21,-0.24,-0.18,-0.55,0.07,-0.07,1.02,1000
17:19:51.056,-3.71,-4.05,-180.21,-0.24,-0.06,-0.37,0.07,-0.07,1.03,1000
17:19:51.068,-3.71,-4.05,-180.22,-0.24,-0.18,-0.49,0.07,-0.06,1.03,1000
17:19:51.080,-3.7,-4.04,-180.22,-0.37,-0.24,-0.67,0.07,-0.06,1.02,1000
17:19:51.090,-3.7,-4.03,-180.23,-0.37,-0.24,-0.55,0.07,-0.07,1.02,1000
17:19:51.100,-3.72,-4.03,-180.24,-0.3,-0.24,-0.61,0.07,-0.07,1.03,1000
17:19:51.111,-3.73,-4.04,-180.24,-0.18,-0.18,-0.43,0.07,-0.06,1.03,1000
17:19:51.122,-3.72,-4.04,-180.25,-0.37,-0.37,-0.85,0.07,-0.07,1.02,1000
17:19:51.133,-3.71,-4.04,-180.26,-0.37,-0.49,-0.37,0.07,-0.07,1.02,1000
17:19:51.144,-3.71,-4.04,-180.26,-0.24,-0.3,-0.24,0.07,-0.07,1.03,1000
17:19:51.155,-3.72,-4.05,-180.27,-0.3,-0.18,-0.49,0.07,-0.07,1.03,1000
17:19:51.166,-3.72,-4.04,-180.27,-0.37,-0.24,-0.37,0.07,-0.07,1.03,1000
17:19:51.180,-3.72,-4.04,-180.28,-0.3,-0.37,-0.79,0.07,-0.06,1.02,1000
17:19:51.190,-3.71,-4.04,-180.28,-0.49,-0.18,-0.61,0.07,-0.07,1.03,1000
17:19:51.199,-3.72,-4.04,-180.29,-0.24,-0.18,-0.37,0.07,-0.07,1.02,1000
17:19:51.210,-3.72,-4.04,-180.29,-0.37,-0.24,-0.49,0.07,-0.07,1.02,1000
17:19:51.222,-3.72,-4.03,-180.3,-0.18,-0.3,-0.61,0.07,-0.06,1.03,1000
17:19:51.233,-3.71,-4.02,-180.31,-0.37,-0.55,-0.49,0.07,-0.07,1.02,1000
17:19:51.244,-3.72,-4.03,-180.31,-0.3,-0.18,-0.67,0.08,-0.07,1.02,1000
17:19:51.254,-3.72,-4.04,-180.32,-0.3,-0.3,-0.43,0.07,-0.07,1.03,1000
17:19:51.266,-3.72,-4.04,-180.32,-0.37,-0.3,-0.43,0.07,-0.07,1.03,1000
17:19:51.276,-3.72,-4.04,-180.33,-0.3,-0.24,-0.67,0.07,-0.07,1.03,1000
17:19:51.289,-3.71,-4.03,-180.34,-0.3,-0.3,-0.73,0.07,-0.07,1.02,1000
17:19:51.298,-3.71,-4.04,-180.34,-0.3,-0.24,-0.43,0.07,-0.07,1.02,1000
17:19:51.309,-3.72,-4.04,-180.35,-0.37,-0.18,-0.49,0.07,-0.06,1.03,1000
17:19:51.320,-3.71,-4.03,-180.35,-0.24,-0.37,-0.67,0.07,-0.07,1.03,1000
17:19:51.331,-3.71,-4.03,-180.36,-0.3,-0.3,-0.49,0.07,-0.07,1.03,1000
17:19:51.342,-3.71,-4.03,-180.36,-0.24,-0.24,-0.61,0.07,-0.07,1.03,1000
17:19:51.355,-3.72,-4.04,-180.37,-0.24,-0.18,-0.49,0.07,-0.07,1.02,1000
17:19:51.364,-3.73,-4.05,-180.37,-0.37,-0.18,-0.43,0.07,-0.07,1.03,1000
17:19:51.377,-3.73,-4.05,-180.38,-0.43,-0.3,-0.61,0.07,-0.07,1.02,1000
17:19:51.391,-3.73,-4.05,-180.39,-0.3,-0.12,-0.61,0.07,-0.07,1.03,1000
17:19:51.399,-3.73,-4.05,-180.39,-0.3,-0.18,-0.55,0.07,-0.07,1.02,1000
17:19:51.408,-3.73,-4.04,-180.4,-0.37,-0.24,-0.67,0.08,-0.07,1.02,1000
17:19:51.421,-3.73,-4.04,-180.4,-0.24,-0.3,-0.37,0.07,-0.07,1.03,1000
17:19:51.432,-3.73,-4.03,-180.41,-0.37,-0.37,-0.37,0.07,-0.07,1.03,1000
17:19:51.441,-3.72,-4.03,-180.41,-0.3,-0.18,-0.43,0.07,-0.07,1.02,1000
17:19:51.452,-3.72,-4.03,-180.42,-0.24,-0.3,-0.55,0.07,-0.07,1.03,1000
17:19:51.463,-3.73,-4.03,-180.42,-0.18,-0.3,-0.49,0.07,-0.07,1.02,1000
17:19:51.473,-3.73,-4.03,-180.43,-0.3,-0.12,-0.61,0.07,-0.07,1.02,1000
17:19:51.497,-3.74,-4.03,-180.44,-0.3,-0.18,-0.55,0.07,-0.07,1.03,1000
17:19:51.498,-3.74,-4.03,-180.44,-0.18,-0.37,-0.49,0.07,-0.07,1.03,1000
17:19:51.507,-3.73,-4.02,-180.45,-0.3,0.0,-0.61,0.07,-0.07,1.02,1000
17:19:51.518,-3.73,-4.02,-180.45,-0.43,-0.37,-0.61,0.07,-0.07,1.03,1000
17:19:51.531,-3.73,-4.03,-180.46,-0.3,-0.24,-0.55,0.07,-0.07,1.02,1000
17:19:51.541,-3.73,-4.02,-180.46,-0.37,-0.37,-0.43,0.07,-0.07,1.03,1000
17:19:51.552,-3.73,-4.01,-180.47,-0.37,-0.3,-0.67,0.07,-0.07,1.03,1000
17:19:51.562,-3.73,-4.01,-180.48,-0.24,-0.3,-0.49,0.07,-0.07,1.02,1000
17:19:51.574,-3.74,-4.01,-180.48,-0.24,-0.37,-0.37,0.07,-0.07,1.03,1000
17:19:51.584,-3.74,-4.02,-180.49,-0.12,-0.18,-0.61,0.07,-0.07,1.02,1000
17:19:51.600,-3.75,-4.02,-180.49,-0.24,-0.18,-0.49,0.07,-0.07,1.02,1000
17:19:51.606,-3.75,-4.02,-180.5,-0.37,-0.18,-0.79,0.07,-0.07,1.03,1000
17:19:51.617,-3.74,-4.03,-180.5,-0.24,-0.18,-0.43,0.07,-0.07,1.03,1000
17:19:51.628,-3.74,-4.04,-180.51,-0.37,-0.12,-0.37,0.07,-0.07,1.03,1000
17:19:51.646,-3.74,-4.05,-180.51,-0.3,-0.12,-0.55,0.07,-0.07,1.03,1000
17:19:51.650,-3.76,-4.02,-180.52,0.24,0.12,-1.89,0.07,-0.1,1.02,1000
17:19:51.662,-3.9,-4.14,-180.55,3.17,1.95,-0.73,0.12,-0.06,1.04,1000
17:19:51.680,-3.76,-4.2,-180.54,-0.61,2.5,3.48,0.04,0.01,1.01,1000
17:19:51.685,-3.43,-4.02,-180.49,-5.67,1.34,5.49,0.05,-0.04,1.01,1000
17:19:51.696,-3.21,-3.79,-180.44,-5.3,-3.66,2.07,-0.01,-0.07,1.03,1000
17:19:51.706,-3.24,-3.55,-180.44,-2.8,-2.99,-1.89,0.1,-0.09,1.02,1000
17:19:51.716,-3.65,-3.61,-180.46,-0.49,-0.18,-1.34,0.1,-0.13,1.0,1000
17:19:51.727,-4.19,-3.78,-180.47,3.17,0.79,0.0,0.09,-0.08,1.03,1000
17:19:51.739,-4.35,-3.88,-180.47,5.3,-0.61,-0.73,0.06,-0.06,1.03,1000
17:19:51.750,-4.3,-3.77,-180.48,2.01,-2.5,-1.89,0.04,-0.04,1.02,1000
17:19:51.763,-4.01,-3.63,-180.5,0.43,-3.48,-1.52,0.09,-0.04,1.03,1000
17:19:51.771,-3.68,-3.8,-180.51,-0.24,-2.68,-0.43,0.09,-0.06,1.02,1000
17:19:51.791,-3.58,-4.06,-180.52,-0.61,0.37,0.24,0.09,-0.07,1.02,1000
17:19:51.794,-3.58,-4.32,-180.51,-0.85,2.13,0.18,0.1,-0.05,1.03,1000
17:19:51.804,-3.46,-4.45,-180.51,-1.83,1.89,-0.43,0.07,-0.05,1.02,1000
17:19:51.815,-3.4,-4.39,-180.52,-2.62,1.34,-1.22,0.07,-0.08,1.02,1000
17:19:51.829,-3.45,-4.25,-180.53,-2.44,0.55,-0.43,0.07,-0.07,1.03,1000
17:19:51.837,-3.54,-4.17,-180.53,-1.22,0.55,0.55,0.07,-0.09,1.03,1000
17:19:51.849,-3.78,-4.07,-180.53,0.12,0.24,0.12,0.06,-0.09,1.03,1000
17:19:51.859,-3.93,-3.98,-180.54,0.85,-0.73,-1.16,0.07,-0.07,1.03,1000
17:19:51.870,-3.96,-3.94,-180.55,1.16,-1.71,-1.52,0.06,-0.07,1.02,1000
17:19:51.881,-3.96,-3.89,-180.57,0.61,-1.71,-1.1,0.07,-0.07,1.02,1000
17:19:51.892,-3.92,-3.93,-180.57,0.67,-1.34,-0.3,0.09,-0.05,1.02,1000
17:19:51.903,-3.8,-4.02,-180.57,0.3,-0.61,-0.06,0.07,-0.06,1.02,1000
17:19:51.914,-3.73,-4.14,-180.58,-1.34,1.65,-0.91,0.14,-0.11,1.02,1000
17:19:51.925,-3.91,-4.59,-180.6,2.56,7.8,-3.54,0.15,-0.12,1.02,1000
17:19:51.936,-3.9,-5.0,-180.64,3.96,9.09,-3.35,0.06,-0.02,1.09,1000
17:19:51.947,-3.66,-4.83,-180.67,0.61,8.78,-3.48,0.04,-0.05,0.98,1000
17:19:51.958,-3.6,-4.45,-180.72,1.4,7.87,-4.94,0.05,-0.07,1.01,1000
17:19:51.969,-3.57,-4.1,-180.78,2.87,5.18,-6.04,0.03,-0.05,1.06,1000
17:19:51.980,-3.47,-3.67,-180.86,2.5,3.9,-6.77,0.04,-0.07,1.0,1000
17:19:51.991,-3.48,-3.38,-180.93,2.01,1.77,-6.1,0.03,-0.06,1.02,1000
17:19:52.004,-3.43,-3.05,-180.99,0.3,-1.28,-4.09,0.04,-0.05,1.02,1000
17:19:52.014,-3.34,-2.87,-181.02,-1.65,-3.05,-1.71,0.05,-0.06,1.02,1000
17:19:52.024,-3.27,-2.82,-181.02,-4.02,-3.72,2.13,0.06,-0.04,1.02,1000
17:19:52.035,-3.19,-2.92,-180.98,-6.83,-4.27,6.46,0.07,-0.05,1.02,1000
17:19:52.046,-3.25,-3.08,-180.9,-7.8,-2.93,8.96,0.06,-0.07,1.02,1000
17:19:52.057,-3.47,-3.16,-180.79,-6.95,-5.24,9.88,0.01,-0.07,1.06,1000
17:19:52.068,-3.68,-2.88,-180.69,-8.11,-10.49,7.99,0.04,-0.13,1.04,1000
17:19:52.079,-3.92,-2.76,-180.6,-0.55,-10.12,7.38,0.1,-0.13,1.0,1000
17:19:52.090,-4.27,-3.12,-180.54,4.76,-7.99,5.12,0.11,-0.11,1.05,1000
17:19:52.101,-4.64,-3.68,-180.49,6.34,-4.02,3.17,0.08,-0.09,1.01,1000
17:19:52.116,-4.71,-3.98,-180.46,5.61,-1.71,1.71,0.07,-0.04,1.0,1000
17:19:52.124,-4.43,-4.16,-180.45,2.44,-2.01,-0.43,0.06,-0.01,1.04,1000
17:19:52.135,-3.94,-4.26,-180.47,-0.3,-1.83,-2.74,0.07,-0.03,1.01,1000
17:19:52.145,-3.56,-4.4,-180.49,-2.2,-0.55,-2.32,0.1,-0.05,1.0,1000
17:19:52.156,-3.39,-4.61,-180.51,-2.62,1.46,0.3,0.11,-0.07,1.03,1000
17:19:52.167,-3.39,-4.74,-180.5,-2.32,2.5,1.34,0.08,-0.08,1.02,1000
17:19:52.178,-3.5,-4.66,-180.49,-2.2,2.01,0.49,0.06,-0.08,1.02,1000
17:19:52.189,-3.59,-4.4,-180.49,-1.95,0.67,-0.61,0.05,-0.07,1.04,1000
17:19:52.200,-3.7,-4.14,-180.5,-1.4,-0.43,-1.16,0.05,-0.08,1.02,1000
17:19:52.211,-3.9,-3.94,-180.51,0.06,-0.91,-0.98,0.06,-0.09,1.03,1000
17:19:52.222,-4.11,-3.85,-180.52,1.59,-0.91,-0.37,0.07,-0.08,1.04,1000
17:19:52.235,-4.16,-3.82,-180.52,1.77,-1.4,-0.3,0.07,-0.06,1.02,1000
17:19:52.245,-4.11,-3.81,-180.52,1.46,-1.77,-1.4,0.07,-0.06,1.03,1000
17:19:52.255,-3.93,-3.87,-180.54,0.37,-0.85,-0.91,0.09,-0.05,1.03,1000
17:19:52.266,-3.73,-4.09,-180.54,0.24,2.38,1.46,0.12,-0.06,1.02,1000
17:19:52.277,-3.58,-4.4,-180.51,0.37,5.43,3.96,0.09,-0.05,1.04,1000
17:19:52.291,-3.35,-4.48,-180.45,-0.55,5.49,6.28,0.06,-0.03,1.03,1000
17:19:52.300,-3.06,-4.29,-180.37,-2.38,3.84,9.39,0.04,-0.04,1.02,1000
17:19:52.311,-2.89,-3.94,-180.25,-2.74,2.62,12.26,0.03,-0.04,1.04,1000
17:19:52.322,-2.75,-3.47,-180.1,-5.55,0.18,14.02,0.08,-0.11,0.99,1000
17:19:52.332,-3.31,-3.59,-179.97,-6.65,-0.91,8.78,0.16,-0.2,1.07,1000
17:19:52.343,-4.05,-3.75,-179.92,0.98,0.61,0.12,-0.04,-0.09,1.04,1000
17:19:52.354,-4.63,-3.41,-179.96,9.09,-0.37,-10.18,0.08,-0.22,0.99,1000
17:19:52.366,-5.44,-3.21,-180.09,15.61,-1.89,-17.32,-0.01,-0.09,1.04,1000
17:19:52.376,-5.54,-2.73,-180.34,19.7,-4.15,-24.45,0.03,-0.1,1.06,1000
17:19:52.387,-5.36,-2.43,-180.64,21.65,-2.8,-30.85,0.01,-0.06,1.02,1000
17:19:52.402,-5.08,-2.19,-181.01,18.72,-1.65,-37.56,0.06,-0.1,1.03,1000
17:19:52.414,-4.74,-2.23,-181.45,17.68,-3.35,-43.17,0.11,0.01,0.98,1000
17:19:52.421,-4.04,-2.65,-181.9,15.37,-6.83,-45.79,0.17,0.02,1.1,1000
17:19:52.432,-3.25,-3.68,-182.44,5.37,-12.44,-44.21,0.12,-0.02,0.98,1000
17:19:52.442,-2.72,-4.37,-182.91,0.91,-8.78,-41.46,0.08,0.03,0.99,1000
17:19:52.453,-1.9,-4.76,-183.34,-3.66,-2.68,-35.67,0.1,0.04,1.04,1000
17:19:52.464,-1.18,-5.15,-183.7,-6.22,0.43,-29.39,0.16,0.05,1.04,1000
17:19:52.475,-0.51,-5.78,-183.99,-6.46,3.41,-21.4,0.14,0.04,1.01,1000
17:19:52.486,-0.15,-6.17,-184.19,-3.23,12.56,-14.94,0.12,-0.09,0.99,1000
17:19:52.497,-0.61,-6.2,-184.32,-5.43,15.24,-8.9,0.09,-0.1,1.09,1000
17:19:52.508,-1.22,-6.05,-184.38,2.74,20.79,-4.15,0.12,-0.13,1.03,1000
17:19:52.529,-2.21,-5.86,-184.42,13.05,26.46,-2.87,0.1,-0.22,1.13,1000
17:19:52.532,-3.4,-5.41,-184.45,20.18,28.66,-3.54,0.04,-0.11,1.08,1000
17:19:52.541,-4.07,-4.7,-184.5,26.83,26.95,-7.38,0.03,-0.12,1.01,1000
17:19:52.552,-4.33,-3.79,-184.61,26.77,18.96,-13.17,-0.06,-0.02,1.01,1000
17:19:52.563,-3.54,-2.71,-184.77,24.88,11.1,-14.27,0.06,0.1,0.95,1000
17:19:52.574,-2.06,-2.3,-184.9,14.39,6.71,-8.54,-0.02,0.11,1.0,1000
17:19:52.585,-0.66,-1.84,-184.97,-6.77,-2.07,-3.48,0.11,0.05,0.97,1000
17:19:52.596,0.24,-1.92,-184.98,-23.6,-9.27,2.32,0.0,0.06,0.93,1000
17:19:52.607,0.8,-1.58,-184.95,-31.59,-24.09,1.52,-0.19,0.1,1.03,1000
17:19:52.627,1.71,-0.07,-184.95,-30.73,-34.57,-0.98,-0.21,0.19,1.04,1000
17:19:52.629,2.24,1.31,-184.95,-35.85,-45.0,1.46,0.02,-0.1,1.04,1000
17:19:52.640,1.23,0.88,-184.9,-34.94,-48.17,8.23,0.13,-0.15,1.0,1000
17:19:52.651,-0.46,-0.8,-184.76,-33.48,-52.13,20.49,0.25,-0.11,1.06,1000
17:19:52.662,-1.96,-2.74,-184.47,-23.72,-42.56,33.05,0.21,-0.15,1.23,1000
17:19:52.673,-3.16,-4.26,-184.05,-10.73,-35.91,44.21,0.14,-0.11,1.15,1000
17:19:52.684,-3.94,-5.27,-183.58,-0.3,-35.61,50.85,0.09,-0.13,1.15,1000
17:19:52.695,-4.37,-6.02,-182.94,10.37,-44.15,55.73,0.11,-0.12,1.08,1000
17:19:52.709,-4.52,-6.7,-182.31,24.39,-51.04,57.99,0.18,-0.15,1.21,1000
17:19:52.718,-4.46,-7.36,-181.73,39.94,-58.66,58.54,0.16,-0.11,1.05,1000
17:19:52.728,-4.2,-7.78,-181.03,61.16,-72.87,57.56,0.08,-0.1,1.19,1000
17:19:52.743,-3.56,-8.0,-180.39,71.89,-67.99,57.07,0.17,-0.0,1.08,1000
17:19:52.750,-2.71,-8.42,-179.77,82.62,-65.61,55.61,0.16,-0.08,1.2,1000
17:19:52.764,-1.98,-9.04,-179.22,92.32,-68.05,54.45,0.2,-0.07,1.1,1000
17:19:52.772,-1.09,-10.21,-178.57,101.71,-69.39,53.66,0.29,-0.03,1.16,1000
17:19:52.783,-0.25,-11.8,-177.99,105.49,-70.49,51.95,0.34,0.02,1.06,1000
17:19:52.794,0.81,-13.52,-177.44,107.87,-62.74,47.32,0.37,0.01,1.12,1000
17:19:52.804,1.98,-14.92,-176.96,107.5,-56.59,38.29,0.35,0.06,1.05,1000
17:19:52.818,3.19,-16.24,-176.57,106.71,-47.32,30.61,0.41,0.1,1.11,1000
17:19:52.832,4.43,-17.52,-176.27,100.91,-34.57,23.41,0.42,0.14,1.06,1000
17:19:52.838,5.69,-18.55,-176.05,94.33,-19.51,16.52,0.42,0.17,1.07,1000
17:19:52.849,6.88,-19.23,-175.89,84.7,-6.34,11.1,0.42,0.19,1.04,1000
17:19:52.860,8.0,-19.73,-175.79,72.38,7.8,6.28,0.4,0.21,1.02,1000
17:19:52.871,8.98,-20.03,-175.74,57.26,23.35,2.8,0.4,0.21,1.01,1000
17:19:52.883,9.65,-20.07,-175.72,41.65,31.83,0.0,0.39,0.2,0.99,1000
17:19:52.893,10.05,-20.03,-175.74,26.95,34.09,-2.8,0.4,0.21,1.0,1000
17:19:52.905,10.33,-19.82,-175.8,-1.77,30.43,-7.62,0.33,0.26,0.99,1000
17:19:52.915,10.78,-19.31,-175.91,-3.17,39.82,-12.62,0.35,0.21,0.91,1000
17:19:52.928,11.11,-18.83,-176.06,-16.46,43.29,-17.5,0.36,0.17,1.01,1000
17:19:52.937,10.88,-18.39,-176.28,-19.21,49.57,-21.83,0.34,0.19,1.0,1000
17:19:52.948,10.47,-17.93,-176.52,-24.39,50.18,-26.89,0.31,0.16,1.03,1000
17:19:52.959,9.86,-17.21,-176.87,-32.13,48.17,-31.95,0.27,0.18,0.98,1000
17:19:52.970,9.41,-16.38,-177.24,-36.89,48.41,-36.4,0.25,0.17,1.0,1000
17:19:52.981,8.98,-15.55,-177.66,-41.22,49.33,-39.45,0.26,0.15,0.95,1000
17:19:52.992,8.44,-14.91,-178.1,-45.91,49.51,-40.85,0.24,0.13,0.99,1000
17:19:53.010,7.8,-14.14,-178.55,-50.91,48.6,-41.28,0.19,0.14,0.97,1000
17:19:53.017,7.24,-13.3,-179.01,-54.7,47.68,-41.4,0.15,0.13,0.99,1000
17:19:53.033,6.72,-12.11,-179.46,-59.21,46.4,-41.1,0.13,0.11,0.99,1000
17:19:53.035,6.05,-10.85,-179.92,-62.87,46.83,-41.4,0.12,0.07,0.99,1000
17:19:53.048,5.2,-9.79,-180.37,-66.16,48.9,-40.73,0.14,0.04,0.99,1000
17:19:53.059,4.22,-8.91,-180.81,-72.68,50.61,-38.29,0.12,0.05,1.01,1000
17:19:53.070,3.26,-8.08,-181.21,-76.1,53.9,-34.7,0.1,0.04,1.01,1000
17:19:53.080,2.3,-7.13,-181.57,-78.78,56.04,-31.34,0.08,0.02,1.03,1000
17:19:53.093,1.31,-6.13,-181.9,-79.02,56.4,-28.54,0.07,-0.01,1.06,1000
17:19:53.103,0.29,-5.18,-182.21,-76.95,55.91,-26.34,0.05,-0.04,1.07,1000
17:19:53.113,-0.68,-4.36,-182.46,-72.62,54.82,-25.06,0.05,-0.07,1.09,1000
17:19:53.125,-1.86,-3.46,-182.76,-67.38,51.65,-24.27,0.03,-0.08,1.11,1000
17:19:53.140,-2.92,-2.6,-183.02,-61.83,48.54,-22.62,0.01,-0.09,1.11,1000
17:19:53.146,-3.83,-1.79,-183.26,-55.73,44.94,-21.22,0.01,-0.11,1.11,1000
17:19:53.157,-4.59,-1.17,-183.47,-50.73,41.65,-19.88,0.01,-0.12,1.11,1000
17:19:53.168,-5.4,-0.6,-183.7,-45.37,38.17,-17.8,0.0,-0.12,1.11,1000
17:19:53.179,-6.06,-0.11,-183.88,-37.93,36.16,-15.73,-0.02,-0.15,1.11,1000
17:19:53.190,-6.66,0.42,-184.04,-27.62,35.43,-13.17,-0.04,-0.18,1.13,1000
17:19:53.201,-7.28,1.05,-184.17,-16.4,33.54,-9.57,-0.06,-0.18,1.14,1000
17:19:53.212,-7.78,1.81,-184.25,-5.24,30.85,-4.76,-0.09,-0.18,1.16,1000
17:19:53.223,-8.03,2.62,-184.28,3.72,27.68,0.43,-0.12,-0.17,1.15,1000
17:19:53.238,-8.1,3.44,-184.25,12.32,24.76,5.85,-0.11,-0.17,1.13,1000
17:19:53.245,-8.08,4.07,-184.16,18.6,21.83,10.67,-0.12,-0.17,1.12,1000
17:19:53.256,-8.03,4.72,-184.02,23.29,18.41,15.85,-0.13,-0.16,1.1,1000
17:19:53.267,-7.86,5.36,-183.82,25.79,15.0,20.73,-0.15,-0.13,1.09,1000
17:19:53.278,-7.55,5.94,-183.57,26.89,11.71,25.06,-0.16,-0.12,1.08,1000
17:19:53.289,-7.17,6.48,-183.27,26.89,8.17,29.45,-0.15,-0.12,1.06,1000
17:19:53.300,-6.77,6.95,-182.93,26.04,5.18,33.35,-0.15,-0.1,1.06,1000
17:19:53.311,-6.39,7.24,-182.54,23.6,1.83,36.65,-0.14,-0.09,1.06,1000
17:19:53.325,-6.05,7.4,-182.13,21.04,-0.91,39.15,-0.13,-0.09,1.05,1000
17:19:53.333,-5.72,7.45,-181.69,18.66,-2.01,40.91,-0.12,-0.09,1.04,1000
17:19:53.345,-5.41,7.39,-181.23,15.49,-2.13,42.26,-0.11,-0.08,1.05,1000
17:19:53.355,-5.13,7.22,-180.8,12.62,-1.83,43.23,-0.1,-0.06,1.03,1000
17:19:53.365,-4.75,6.99,-180.28,9.02,-1.22,43.66,-0.11,-0.05,1.05,1000
17:19:53.377,-4.33,6.78,-179.8,4.7,-1.77,43.6,-0.1,-0.04,1.06,1000
17:19:53.388,-3.89,6.49,-179.32,-0.18,-2.44,43.41,-0.08,-0.03,1.06,1000
17:19:53.399,-3.56,6.17,-178.85,-2.26,-1.95,42.99,-0.07,-0.04,1.06,1000
17:19:53.410,-3.28,5.78,-178.38,-2.87,-0.55,42.44,-0.06,-0.04,1.07,1000
17:19:53.429,-3.07,5.42,-177.95,-2.26,1.1,41.95,-0.06,-0.03,1.08,1000
17:19:53.446,-2.87,5.14,-177.45,-1.28,2.68,41.22,-0.07,-0.02,1.07,1000
17:19:53.447,-2.59,4.9,-177.05,0.73,4.63,40.24,-0.06,-0.02,1.07,1000
17:19:53.454,-2.24,4.63,-176.57,3.96,6.77,39.21,-0.05,-0.02,1.07,1000
17:19:53.465,-1.86,4.32,-176.14,7.32,8.23,38.41,-0.05,-0.01,1.07,1000
17:19:53.476,-1.45,4.1,-175.73,10.91,9.21,37.01,-0.06,0.01,1.06,1000
17:19:53.487,-0.95,3.94,-175.32,14.21,9.27,36.4,-0.06,0.01,1.06,1000
17:19:53.498,-0.48,3.89,-174.93,18.17,9.21,35.3,-0.06,0.02,1.05,1000
17:19:53.509,0.02,3.87,-174.54,22.56,9.82,34.15,-0.06,0.02,1.04,1000
17:19:53.519,0.52,3.84,-174.17,26.52,10.43,32.62,-0.05,0.03,1.03,1000
17:19:53.530,1.0,3.8,-173.82,29.39,10.43,31.16,-0.06,0.05,1.02,1000
17:19:53.542,1.59,3.81,-173.48,31.22,9.76,30.06,-0.08,0.07,1.01,1000
17:19:53.553,2.29,3.9,-173.16,32.38,8.54,28.35,-0.07,0.07,1.0,1000
17:19:53.565,2.99,3.99,-172.86,33.35,7.74,26.52,-0.07,0.08,0.99,1000
17:19:53.574,3.57,4.06,-172.6,34.33,7.44,24.82,-0.08,0.09,0.98,1000
17:19:53.588,4.28,4.21,-172.32,33.78,5.98,22.13,-0.09,0.1,0.99,1000
17:19:53.597,4.9,4.43,-172.09,32.2,4.27,19.57,-0.1,0.11,0.98,1000
17:19:53.608,5.5,4.71,-171.88,30.91,3.41,17.13,-0.1,0.11,0.98,1000
17:19:53.624,6.01,4.92,-171.7,29.39,3.17,15.18,-0.1,0.12,0.98,1000
17:19:53.629,6.44,5.12,-171.56,27.62,2.68,13.41,-0.11,0.12,0.99,1000
17:19:53.643,6.89,5.41,-171.41,25.06,2.5,10.91,-0.12,0.12,0.99,1000
17:19:53.653,7.23,5.67,-171.3,23.66,2.5,8.54,-0.12,0.12,0.99,1000
17:19:53.662,7.48,5.98,-171.22,21.89,2.93,6.16,-0.13,0.12,0.99,1000
17:19:53.676,7.66,6.28,-171.16,20.06,3.6,4.27,-0.12,0.12,0.99,1000
17:19:53.684,7.75,6.53,-171.12,18.6,4.7,2.62,-0.13,0.12,1.0,1000
17:19:53.695,7.68,6.85,-171.1,16.16,4.82,0.91,-0.16,0.12,1.0,1000
17:19:53.706,7.6,7.33,-171.1,14.27,4.88,-0.73,-0.17,0.12,1.01,1000
17:19:53.718,7.52,7.84,-171.11,13.66,5.67,-1.22,-0.17,0.1,1.01,1000
17:19:53.733,7.43,8.24,-171.12,14.7,7.74,-0.98,-0.17,0.09,1.01,1000
17:19:53.742,7.19,8.73,-171.13,14.94,10.06,-0.3,-0.19,0.1,1.01,1000
17:19:53.753,6.96,9.25,-171.13,15.3,11.59,0.85,-0.2,0.1,1.01,1000
17:19:53.761,6.79,9.77,-171.11,15.61,12.32,2.62,-0.21,0.09,1.02,1000
17:19:53.773,6.6,10.33,-171.07,15.43,12.2,5.06,-0.22,0.1,1.02,1000
17:19:53.784,6.44,10.9,-171.01,15.79,11.16,7.2,-0.23,0.09,1.01,1000
17:19:53.796,6.26,11.38,-170.92,16.83,9.7,9.45,-0.24,0.08,1.02,1000
17:19:53.806,6.05,11.85,-170.8,18.41,7.2,12.2,-0.24,0.07,1.02,1000
17:19:53.817,5.75,12.26,-170.65,20.24,4.39,15.37,-0.25,0.06,1.02,1000
17:19:53.828,5.48,12.6,-170.44,21.34,1.52,18.96,-0.25,0.08,1.03,1000
17:19:53.839,5.38,12.85,-170.22,22.87,-2.68,24.57,-0.24,0.08,1.04,1000
17:19:53.855,5.32,12.92,-169.93,24.88,-6.77,29.63,-0.23,0.08,1.04,1000
17:19:53.864,5.33,12.88,-169.62,27.62,-10.37,32.74,-0.22,0.07,1.05,1000
17:19:53.872,5.34,12.72,-169.21,32.07,-14.21,34.88,-0.22,0.07,1.05,1000
17:19:53.883,5.28,12.43,-168.82,36.77,-16.95,36.46,-0.19,0.07,1.06,1000
17:19:53.894,5.26,12.01,-168.41,41.4,-18.6,37.74,-0.19,0.07,1.05,1000
17:19:53.907,5.33,11.55,-167.99,46.59,-18.66,38.84,-0.18,0.08,1.05,1000
17:19:53.916,5.51,11.09,-167.56,50.18,-17.44,39.7,-0.17,0.09,1.04,1000
17:19:53.927,5.8,10.65,-167.12,52.93,-15.49,41.1,-0.16,0.1,1.03,1000
17:19:53.938,6.15,10.25,-166.7,54.76,-12.01,42.32,-0.14,0.11,1.02,1000
17:19:53.949,6.64,9.82,-166.19,56.95,-6.89,43.84,-0.14,0.13,1.01,1000
17:19:53.960,7.11,9.45,-165.75,57.68,-2.56,44.51,-0.14,0.14,0.99,1000
17:19:53.971,7.76,9.14,-165.21,56.59,1.16,44.76,-0.14,0.16,0.99,1000
17:19:53.982,8.41,8.95,-164.72,55.43,4.21,45.06,-0.14,0.17,0.97,1000
17:19:53.993,9.09,8.81,-164.22,52.74,6.34,45.12,-0.14,0.18,0.95,1000
17:19:54.004,9.76,8.78,-163.73,48.72,7.8,44.7,-0.14,0.2,0.94,1000
17:19:54.015,10.46,8.79,-163.24,43.9,9.27,44.27,-0.14,0.21,0.92,1000
17:19:54.026,11.27,8.8,-162.76,38.78,10.79,44.15,-0.14,0.23,0.9,1000
17:19:54.040,11.97,8.88,-162.27,33.48,12.44,44.21,-0.14,0.24,0.89,1000
17:19:54.052,12.74,8.95,-161.79,27.8,14.33,43.78,-0.13,0.25,0.87,1000
17:19:54.061,13.49,9.02,-161.31,22.2,16.52,43.17,-0.13,0.26,0.86,1000
17:19:54.071,14.27,9.08,-160.79,16.71,18.11,42.32,-0.13,0.27,0.85,1000
17:19:54.081,14.7,9.16,-160.41,12.68,18.78,41.77,-0.13,0.27,0.86,1000
17:19:54.092,15.37,9.16,-159.91,8.05,17.99,41.83,-0.13,0.27,0.86,1000
17:19:54.103,15.83,9.18,-159.45,4.33,16.16,41.65,-0.14,0.28,0.86,1000
17:19:54.114,16.16,9.23,-158.99,1.4,13.9,41.83,-0.14,0.28,0.87,1000
17:19:54.125,16.41,9.26,-158.58,-0.61,12.2,42.13,-0.14,0.27,0.87,1000
17:19:54.136,16.56,9.26,-158.07,-1.52,11.22,42.62,-0.12,0.27,0.87,1000
17:19:54.147,16.66,9.12,-157.64,-1.65,11.46,43.54,-0.11,0.27,0.87,1000
17:19:54.162,16.77,8.86,-157.11,-1.59,12.13,44.33,-0.11,0.27,0.88,1000
17:19:54.169,16.82,8.64,-156.66,-1.22,12.56,45.18,-0.1,0.26,0.88,1000
17:19:54.182,16.8,8.3,-156.12,-0.3,13.05,46.28,-0.09,0.25,0.88,1000
17:19:54.192,16.67,7.9,-155.6,0.43,13.23,47.32,-0.08,0.24,0.88,1000
17:19:54.202,16.48,7.5,-155.08,0.55,12.44,48.48,-0.09,0.25,0.89,1000
17:19:54.214,16.28,7.13,-154.54,-0.18,11.46,49.63,-0.08,0.24,0.89,1000
17:19:54.225,16.11,6.8,-154.04,-0.98,11.46,50.73,-0.06,0.24,0.88,1000
17:19:54.236,15.87,6.27,-153.42,-0.98,12.5,52.2,-0.05,0.23,0.87,1000
17:19:54.246,15.69,5.79,-152.89,-0.85,14.02,52.99,-0.05,0.23,0.86,1000
17:19:54.257,15.51,5.31,-152.31,-0.85,15.18,52.68,-0.05,0.23,0.86,1000
17:19:54.268,15.31,4.93,-151.68,-1.52,14.76,52.2,-0.06,0.22,0.87,1000
17:19:54.279,15.1,4.71,-151.11,-3.48,12.68,52.44,-0.07,0.22,0.88,1000
17:19:54.290,14.87,4.59,-150.53,-5.85,9.76,53.9,-0.06,0.22,0.89,1000
17:19:54.301,14.52,4.44,-149.92,-8.6,6.71,55.91,-0.05,0.2,0.9,1000
17:19:54.312,14.08,4.2,-149.3,-11.28,4.63,58.41,-0.03,0.19,0.9,1000
17:19:54.324,13.48,3.74,-148.65,-14.94,3.29,60.24,-0.02,0.18,0.91,1000
17:19:54.334,12.86,3.19,-147.98,-19.63,2.13,61.65,-0.02,0.19,0.91,1000
17:19:54.348,12.35,2.71,-147.29,-26.04,1.04,62.62,-0.02,0.2,0.92,1000
17:19:54.360,11.96,2.27,-146.6,-32.01,0.55,63.66,-0.02,0.21,0.95,1000
17:19:54.367,11.61,1.89,-145.9,-39.21,0.49,64.7,-0.0,0.2,0.96,1000
17:19:54.378,11.22,1.46,-145.18,-42.56,2.62,65.12,0.01,0.18,0.97,1000
17:19:54.389,10.71,0.98,-144.47,-44.21,6.52,65.06,0.02,0.17,0.99,1000
17:19:54.400,10.14,0.5,-143.75,-44.7,10.67,64.63,0.03,0.17,1.0,1000
17:19:54.411,9.63,0.08,-143.11,-45.06,14.7,64.15,0.04,0.17,1.01,1000
17:19:54.424,9.09,-0.35,-142.34,-45.61,19.39,63.78,0.04,0.17,1.02,1000
17:19:54.433,8.67,-0.7,-141.64,-46.52,22.8,63.72,0.04,0.17,1.03,1000
17:19:54.444,8.35,-0.93,-141.0,-47.38,25.55,63.78,0.04,0.18,1.02,1000
17:19:54.462,8.07,-1.07,-140.24,-47.93,29.45,63.6,0.03,0.18,1.02,1000
17:19:54.469,8.05,-1.13,-139.6,-48.66,31.89,63.41,0.03,0.18,1.01,1000
17:19:54.477,7.92,-1.08,-138.84,-49.45,34.33,62.99,0.03,0.18,1.0,1000
17:19:54.488,7.9,-1.04,-138.16,-49.09,36.65,61.65,0.03,0.17,0.99,1000
17:19:54.499,7.81,-0.98,-137.49,-48.23,38.11,59.76,0.03,0.16,0.99,1000
17:19:54.510,7.67,-0.9,-136.84,-47.62,38.54,57.87,0.02,0.15,0.98,1000
17:19:54.521,7.49,-0.83,-136.27,-47.68,38.6,56.04,0.02,0.14,0.98,1000
17:19:54.532,7.21,-0.76,-135.61,-48.48,37.5,54.39,0.03,0.14,0.96,1000
17:19:54.542,6.98,-0.75,-135.01,-50.0,36.4,53.11,0.02,0.13,0.95,1000
17:19:54.557,6.72,-0.74,-134.43,-51.34,35.49,52.62,0.03,0.12,0.94,1000
17:19:54.569,6.38,-0.73,-133.85,-53.17,34.21,52.13,0.02,0.11,0.94,1000
17:19:54.576,6.01,-0.68,-133.28,-54.7,32.93,51.4,0.01,0.11,0.94,1000
17:19:54.587,5.7,-0.58,-132.77,-55.06,31.71,50.79,0.0,0.1,0.93,1000
17:19:54.598,5.29,-0.43,-132.22,-54.88,31.34,49.63,0.01,0.08,0.92,1000
17:19:54.609,4.78,-0.33,-131.63,-54.57,30.18,48.9,0.01,0.06,0.92,1000
17:19:54.620,4.22,-0.31,-131.09,-55.3,27.68,48.23,0.01,0.06,0.93,1000
17:19:54.631,3.59,-0.36,-130.57,-56.83,24.39,47.5,0.01,0.04,0.92,1000
17:19:54.642,2.93,-0.42,-130.05,-57.5,20.85,47.32,0.01,0.03,0.92,1000
17:19:54.654,2.28,-0.45,-129.52,-57.07,16.89,47.87,0.0,0.02,0.93,1000
17:19:54.670,1.66,-0.46,-128.99,-56.46,12.87,48.41,-0.0,0.01,0.93,1000
17:19:54.685,1.04,-0.47,-128.46,-55.67,8.54,49.09,0.01,-0.0,0.94,1000
17:19:54.686,0.36,-0.57,-127.91,-53.54,5.85,49.76,0.02,-0.02,0.94,1000
17:19:54.697,-0.38,-0.79,-127.37,-50.49,3.96,50.06,0.03,-0.04,0.94,1000
17:19:54.711,-1.13,-1.09,-126.81,-46.52,2.26,50.43,0.03,-0.04,0.94,1000
17:19:54.722,-1.78,-1.37,-126.26,-42.8,0.49,50.85,0.03,-0.05,0.94,1000
17:19:54.731,-2.29,-1.62,-125.74,-40.12,-1.71,51.71,0.03,-0.04,0.94,1000
17:19:54.742,-2.75,-1.91,-125.12,-37.26,-4.09,53.05,0.04,-0.04,0.92,1000
17:19:54.752,-3.05,-2.19,-124.58,-36.22,-5.91,53.84,0.05,-0.05,0.92,1000
17:19:54.764,-3.38,-2.55,-123.93,-35.98,-7.74,53.9,0.04,-0.05,0.91,1000
17:19:54.778,-3.62,-2.86,-123.34,-34.57,-7.32,53.17,0.05,-0.05,0.88,1000
17:19:54.785,-3.85,-3.17,-122.76,-31.52,-5.06,52.07,0.06,-0.06,0.87,1000
17:19:54.796,-4.05,-3.48,-122.2,-28.78,-3.72,50.49,0.05,-0.06,0.86,1000
17:19:54.807,-4.21,-3.69,-121.65,-27.87,-4.02,48.48,0.04,-0.05,0.87,1000
17:19:54.818,-4.35,-3.77,-121.13,-28.9,-6.34,46.34,0.04,-0.05,0.87,1000
17:19:54.829,-4.4,-3.77,-120.63,-31.95,-9.7,45.24,0.03,-0.04,0.87,1000
17:19:54.840,-4.39,-3.79,-120.13,-36.16,-13.66,45.91,0.03,-0.03,0.88,1000
17:19:54.851,-4.26,-3.76,-119.62,-40.43,-17.56,47.07,0.03,-0.03,0.88,1000
17:19:54.862,-4.27,-3.85,-119.09,-42.74,-21.46,48.23,0.03,-0.04,0.9,1000
17:19:54.873,-4.28,-3.81,-118.56,-43.9,-25.12,48.17,0.03,-0.06,0.92,1000
17:19:54.886,-4.4,-3.78,-118.04,-44.09,-27.93,47.5,0.03,-0.06,0.93,1000
17:19:54.895,-4.58,-3.78,-117.52,-42.5,-28.84,46.22,0.04,-0.07,0.93,1000
17:19:54.906,-4.84,-3.9,-117.01,-39.7,-27.62,45.3,0.05,-0.08,0.93,1000
17:19:54.917,-5.03,-3.99,-116.52,-36.89,-26.04,44.33,0.04,-0.07,0.95,1000
17:19:54.931,-5.12,-4.01,-116.0,-35.67,-25.79,43.05,0.02,-0.05,0.96,1000
17:19:54.940,-5.13,-4.0,-115.52,-35.61,-25.98,42.8,0.03,-0.06,0.98,1000
17:19:54.955,-5.07,-3.95,-115.09,-35.91,-25.79,42.93,0.03,-0.06,0.98,1000
17:19:54.961,-5.04,-3.94,-114.62,-36.34,-24.94,42.8,0.03,-0.05,1.0,1000
17:19:54.974,-4.84,-3.74,-114.2,-35.98,-23.29,42.01,0.02,-0.05,0.99,1000
17:19:54.989,-4.71,-3.62,-113.7,-34.09,-19.57,40.3,0.02,-0.05,1.0,1000
17:19:54.994,-4.47,-3.35,-113.23,-31.95,-16.77,38.78,0.03,-0.04,1.02,1000
17:19:55.014,-4.35,-3.26,-112.82,-27.32,-13.23,36.16,0.04,-0.06,1.02,1000
17:19:55.016,-4.22,-3.19,-112.47,-23.23,-11.4,33.17,0.04,-0.06,1.03,1000
17:19:55.027,-4.15,-3.21,-112.12,-18.6,-10.61,30.85,0.05,-0.07,1.04,1000
17:19:55.038,-4.09,-3.26,-111.82,-14.88,-11.65,27.93,0.05,-0.08,1.04,1000
17:19:55.049,-4.04,-3.33,-111.5,-11.89,-14.09,24.63,0.04,-0.07,1.05,1000
17:19:55.059,-3.95,-3.36,-111.25,-10.49,-16.89,20.73,0.03,-0.06,1.04,1000
17:19:55.074,-3.84,-3.27,-111.04,-9.63,-19.27,17.2,0.03,-0.07,1.03,1000
17:19:55.087,-3.79,-3.28,-110.86,-10.3,-21.22,13.96,0.03,-0.06,1.04,1000
17:19:55.093,-3.71,-3.26,-110.72,-12.01,-22.38,12.5,0.03,-0.06,1.05,1000
17:19:55.104,-3.64,-3.24,-110.58,-15.0,-23.41,12.44,0.05,-0.07,1.06,1000
17:19:55.115,-3.64,-3.32,-110.44,-18.41,-24.51,13.48,0.05,-0.07,1.08,1000
17:19:55.126,-3.71,-3.41,-110.28,-21.1,-25.91,15.18,0.05,-0.08,1.1,1000
17:19:55.137,-3.89,-3.57,-110.11,-22.38,-27.13,16.95,0.06,-0.1,1.12,1000
17:19:55.148,-4.18,-3.78,-109.92,-21.46,-27.38,17.74,0.07,-0.11,1.13,1000
17:19:55.159,-4.51,-4.02,-109.74,-18.9,-26.59,18.29,0.09,-0.13,1.13,1000
17:19:55.171,-4.85,-4.34,-109.52,-14.82,-24.88,18.6,0.09,-0.13,1.14,1000
17:19:55.189,-5.13,-4.57,-109.33,-11.4,-23.84,19.88,0.1,-0.13,1.14,1000
17:19:55.191,-5.38,-4.85,-109.08,-9.15,-24.09,21.71,0.09,-0.13,1.15,1000
17:19:55.203,-5.5,-5.06,-108.85,-9.7,-26.1,24.02,0.1,-0.12,1.17,1000
17:19:55.214,-5.6,-5.33,-108.54,-11.28,-28.6,28.17,0.12,-0.12,1.17,1000
17:19:55.225,-5.71,-5.66,-108.22,-13.66,-30.55,31.46,0.14,-0.13,1.18,1000
17:19:55.239,-5.88,-6.14,-107.86,-15.18,-31.04,34.15,0.16,-0.15,1.18,1000
17:19:55.247,-6.08,-6.65,-107.47,-14.39,-29.15,35.24,0.16,-0.15,1.18,1000
17:19:55.258,-6.26,-7.1,-107.12,-11.71,-26.1,35.37,0.17,-0.15,1.19,1000
17:19:55.269,-6.41,-7.54,-106.7,-7.5,-22.87,34.63,0.17,-0.15,1.2,1000
17:19:55.280,-6.51,-7.91,-106.32,-2.62,-19.94,33.72,0.19,-0.16,1.2,1000
17:19:55.290,-6.52,-8.46,-105.95,-6.65,-4.45,33.72,0.29,-0.15,1.48,1000
17:19:55.301,-6.33,-9.05,-105.59,-18.29,20.06,31.89,0.21,-0.12,1.37,1000
17:19:55.312,-6.12,-9.08,-105.28,-20.98,41.95,23.72,0.21,-0.07,1.34,1000
17:19:55.324,-6.09,-8.51,-105.07,-22.44,48.48,14.94,0.18,-0.12,1.29,1000
17:19:55.334,-6.25,-7.73,-104.94,-17.38,42.2,7.87,0.11,-0.17,1.22,1000
17:19:55.346,-6.51,-6.98,-104.87,-6.71,34.45,3.11,0.08,-0.17,1.18,1000
17:19:55.357,-6.78,-6.1,-104.86,0.12,30.73,-0.3,0.09,-0.15,1.18,1000
17:19:55.370,-6.86,-5.4,-104.87,0.61,33.54,-0.91,0.08,-0.12,1.17,1000
17:19:55.383,-6.81,-4.53,-104.88,-0.18,37.01,-0.49,0.04,-0.14,1.11,1000
17:19:55.391,-6.91,-3.64,-104.86,4.27,27.62,5.61,-0.03,-0.2,1.05,1000
17:19:55.400,-7.28,-2.73,-104.76,11.46,14.02,15.37,-0.06,-0.21,1.04,1000
17:19:55.411,-7.84,-1.36,-104.51,15.18,4.09,27.74,-0.08,-0.18,1.09,1000
17:19:55.422,-8.15,-0.26,-104.16,14.02,1.46,35.98,-0.03,-0.21,1.11,1000
17:19:55.433,-8.37,0.27,-103.73,13.41,2.74,42.56,-0.01,-0.2,1.08,1000
17:19:55.444,-8.59,0.48,-103.25,15.67,4.15,45.3,0.01,-0.18,1.08,1000
17:19:55.456,-8.61,0.46,-102.74,18.05,3.72,45.37,0.01,-0.16,1.07,1000
17:19:55.466,-8.45,0.38,-102.25,18.48,3.11,43.84,-0.01,-0.15,1.06,1000
17:19:55.478,-8.17,0.39,-101.82,16.77,3.78,42.93,-0.01,-0.11,1.05,1000
17:19:55.491,-7.72,0.35,-101.3,15.37,3.41,43.41,0.01,-0.12,1.02,1000
17:19:55.500,-7.36,0.26,-100.82,14.15,4.51,43.6,0.03,-0.14,1.03,1000
17:19:55.512,-7.29,0.0,-100.33,13.41,6.1,44.57,0.06,-0.19,1.0,1000
17:19:55.522,-7.54,-0.35,-99.89,13.54,8.29,43.66,0.03,-0.18,1.01,1000
17:19:55.534,-7.88,-0.47,-99.38,12.32,9.94,40.73,-0.02,-0.19,0.99,1000
17:19:55.545,-8.24,-0.22,-98.95,9.51,10.98,37.56,-0.06,-0.19,1.0,1000
17:19:55.554,-8.65,0.31,-98.58,4.76,12.26,34.94,-0.07,-0.2,0.99,1000
17:19:55.566,-9.26,1.11,-98.15,-1.89,14.15,32.32,-0.09,-0.23,0.96,1000
17:19:55.577,-9.97,1.9,-97.83,-7.13,13.23,30.79,-0.09,-0.22,0.93,1000
17:19:55.589,-10.74,2.75,-97.5,-14.63,12.99,29.33,-0.1,-0.22,0.94,1000
17:19:55.599,-11.36,3.47,-97.18,-24.02,15.37,28.48,-0.07,-0.2,0.94,1000
17:19:55.610,-11.81,3.96,-96.87,-36.16,21.71,27.38,-0.07,-0.19,0.96,1000
17:19:55.621,-12.15,4.26,-96.58,-46.04,26.34,25.91,-0.04,-0.2,0.94,1000
17:19:55.632,-12.6,4.41,-96.32,-53.9,31.59,24.82,-0.06,-0.22,1.0,1000
17:19:55.643,-13.19,4.76,-96.03,-61.22,36.95,22.07,-0.07,-0.18,0.98,1000
17:19:55.655,-13.52,5.0,-95.81,-67.99,42.2,18.54,-0.06,-0.21,1.04,1000
17:19:55.665,-13.88,5.21,-95.62,-73.17,45.18,15.55,-0.07,-0.24,1.0,1000
17:19:55.680,-14.28,5.46,-95.47,-70.91,41.52,11.95,-0.1,-0.24,1.01,1000
17:19:55.688,-14.61,5.75,-95.36,-64.94,32.99,10.18,-0.1,-0.25,1.02,1000
17:19:55.699,-15.0,5.96,-95.23,-55.43,23.84,10.85,-0.1,-0.28,1.04,1000
17:19:55.709,-15.32,6.07,-95.11,-43.41,14.82,11.77,-0.12,-0.28,1.04,1000
17:19:55.720,-15.47,6.14,-94.97,-28.54,5.12,13.9,-0.12,-0.27,1.04,1000
17:19:55.731,-15.46,6.17,-94.83,-13.96,-1.16,15.55,-0.12,-0.27,1.02,1000
17:19:55.743,-15.18,6.21,-94.62,1.77,-10.98,18.6,-0.15,-0.22,1.06,1000
17:19:55.755,-14.52,6.29,-94.41,13.6,-19.33,21.04,-0.11,-0.24,1.08,1000
17:19:55.764,-13.67,6.34,-94.19,23.78,-22.68,22.99,-0.15,-0.18,1.09,1000
17:19:55.775,-12.56,6.44,-93.92,30.91,-28.17,25.3,-0.17,-0.16,1.1,1000
17:19:55.793,-11.22,6.65,-93.61,38.11,-31.16,27.26,-0.16,-0.17,1.09,1000
17:19:55.802,-10.32,6.79,-93.33,43.41,-29.57,29.02,-0.16,-0.17,1.08,1000
17:19:55.807,-9.53,6.83,-92.96,48.54,-26.52,31.52,-0.16,-0.19,1.03,1000
17:19:55.821,-9.13,7.05,-92.61,52.2,-23.23,32.56,-0.15,-0.24,1.01,1000
17:19:55.830,-9.07,7.27,-92.25,55.12,-16.34,34.33,-0.15,-0.22,0.96,1000
17:19:55.841,-9.8,7.47,-91.87,61.46,-2.32,35.24,-0.1,-0.19,0.9,1000
17:19:55.854,-9.82,7.89,-91.46,59.76,-0.37,39.39,-0.25,-0.11,0.94,1000
17:19:55.863,-9.16,8.53,-91.01,47.87,-12.62,42.62,-0.22,-0.11,1.0,1000
17:19:55.874,-8.07,8.99,-90.45,39.57,-21.16,51.83,-0.34,-0.06,0.98,1000
17:19:55.885,-7.1,9.39,-89.91,26.71,-26.83,55.73,-0.26,-0.09,1.08,1000
17:19:55.896,-6.22,9.69,-89.28,12.2,-29.09,59.51,-0.19,-0.05,1.0,1000
17:19:55.907,-5.56,9.81,-88.63,-1.59,-31.65,60.18,-0.16,-0.05,1.06,1000
17:19:55.918,-5.24,9.6,-87.96,-14.51,-32.2,60.37,-0.19,-0.08,1.04,1000
17:19:55.929,-5.26,9.37,-87.3,-22.93,-33.6,60.37,-0.17,-0.12,1.05,1000
17:19:55.940,-5.68,9.1,-86.63,-28.72,-35.85,61.28,-0.16,-0.17,1.05,1000
17:19:55.951,-6.42,8.86,-85.95,-30.67,-38.78,62.26,-0.18,-0.19,1.03,1000
17:19:55.965,-7.21,8.63,-85.32,-29.51,-39.15,63.78,-0.15,-0.2,1.04,1000
17:19:55.973,-8.14,8.24,-84.54,-24.33,-37.13,66.59,-0.12,-0.23,1.0,1000
17:19:55.986,-9.06,7.77,-83.8,-15.24,-33.23,68.41,-0.09,-0.24,1.0,1000
17:19:56.005,-9.82,7.2,-83.04,-2.93,-26.83,71.04,-0.08,-0.25,0.99,1000
17:19:56.007,-10.55,6.59,-82.25,11.22,-21.46,72.74,-0.06,-0.26,1.0,1000
17:19:56.017,-11.17,5.92,-81.43,27.01,-17.01,75.85,-0.06,-0.26,1.01,1000
17:19:56.030,-11.45,5.41,-80.66,40.43,-15.3,77.44,-0.06,-0.25,1.03,1000
17:19:56.039,-11.39,5.04,-79.73,55.67,-21.16,74.33,-0.17,-0.26,1.12,1000
17:19:56.050,-11.29,4.62,-78.92,54.7,-35.98,72.38,-0.02,-0.19,1.12,1000
17:19:56.062,-10.97,4.14,-78.14,52.26,-42.87,68.41,-0.04,-0.17,1.11,1000
17:19:56.072,-10.49,3.61,-77.43,47.38,-47.01,61.83,-0.05,-0.19,1.08,1000
17:19:56.083,-10.06,3.17,-76.83,41.04,-50.49,56.71,-0.07,-0.19,1.09,1000
17:19:56.094,-9.61,2.66,-76.18,33.17,-51.34,50.91,-0.04,-0.17,1.09,1000
17:19:56.107,-9.23,2.19,-75.65,24.57,-51.28,45.37,-0.06,-0.17,1.06,1000
17:19:56.116,-9.01,1.79,-75.17,17.07,-53.29,41.1,-0.02,-0.18,1.06,1000
17:19:56.128,-8.96,1.29,-74.73,8.84,-55.49,38.54,-0.0,-0.17,1.01,1000
17:19:56.138,-9.01,0.76,-74.32,2.68,-58.41,35.79,0.01,-0.16,1.01,1000
17:19:56.149,-9.06,0.17,-73.94,-3.9,-59.39,33.23,0.04,-0.15,0.98,1000
17:19:56.160,-9.06,-0.54,-73.58,-8.78,-58.9,31.46,0.05,-0.13,0.98,1000
17:19:56.171,-9.01,-1.31,-73.24,-11.89,-57.01,30.37,0.06,-0.12,0.94,1000
17:19:56.182,-8.95,-2.15,-72.92,-12.99,-53.66,29.39,0.06,-0.14,0.94,1000
17:19:56.193,-8.98,-2.9,-72.59,-10.85,-49.57,29.02,0.07,-0.15,0.93,1000
17:19:56.206,-9.08,-3.57,-72.27,-6.95,-43.66,29.27,0.09,-0.15,0.93,1000
17:19:56.215,-9.14,-4.15,-71.95,-0.79,-35.91,29.39,0.1,-0.14,0.92,1000
17:19:56.226,-9.11,-4.7,-71.63,6.1,-27.99,29.45,0.11,-0.15,0.92,1000
17:19:56.237,-9.04,-5.21,-71.3,14.15,-17.93,29.94,0.1,-0.15,0.91,1000
17:19:56.253,-8.86,-5.55,-70.97,21.83,-6.52,29.88,0.11,-0.13,0.93,1000
17:19:56.267,-8.52,-5.74,-70.65,28.84,5.43,28.78,0.12,-0.12,0.93,1000
17:19:56.271,-8.06,-5.79,-70.34,35.91,16.1,27.26,0.11,-0.09,0.93,1000
17:19:56.281,-7.41,-5.78,-70.04,40.85,25.24,26.1,0.1,-0.09,0.93,1000
17:19:56.293,-6.71,-5.55,-69.76,44.51,32.26,25.06,0.08,-0.09,0.93,1000
17:19:56.305,-6.15,-5.13,-69.52,45.98,37.01,23.6,0.06,-0.09,0.95,1000
17:19:56.314,-5.53,-4.41,-69.24,44.02,40.91,22.07,0.04,-0.08,0.95,1000
17:19:56.324,-4.97,-3.55,-69.01,40.73,42.01,20.85,0.01,-0.07,0.96,1000
17:19:56.336,-4.53,-2.76,-68.8,36.22,40.91,20.18,0.01,-0.06,0.96,1000
17:19:56.347,-4.09,-1.97,-68.56,29.7,37.44,19.33,0.0,-0.06,0.97,1000
17:19:56.358,-3.74,-1.23,-68.36,22.68,32.93,18.72,-0.0,-0.05,0.98,1000
17:19:56.369,-3.47,-0.6,-68.16,14.21,28.11,17.56,-0.0,-0.05,0.99,1000
17:19:56.380,-3.27,-0.11,-67.97,6.34,23.23,16.46,-0.0,-0.04,1.0,1000
17:19:56.391,-3.15,0.17,-67.81,-0.91,19.02,15.24,0.0,-0.04,1.01,1000
17:19:56.402,-3.04,0.34,-67.64,-8.72,14.88,12.99,0.01,-0.03,1.02,1000
17:19:56.417,-2.94,0.38,-67.51,-15.24,13.48,10.37,0.01,-0.03,1.04,1000
17:19:56.424,-2.87,0.38,-67.41,-20.55,13.05,7.62,0.01,-0.03,1.05,1000
17:19:56.435,-2.86,0.35,-67.34,-23.78,13.11,4.82,0.01,-0.05,1.06,1000
17:19:56.446,-3.02,0.37,-67.29,-25.61,12.93,3.23,0.01,-0.07,1.05,1000
17:19:56.458,-3.29,0.4,-67.26,-25.3,11.71,2.07,0.0,-0.08,1.06,1000
17:19:56.468,-3.61,0.43,-67.24,-22.93,10.0,1.83,0.0,-0.08,1.06,1000
17:19:56.479,-3.95,0.43,-67.22,-19.88,8.48,1.46,-0.0,-0.09,1.07,1000
17:19:56.490,-4.23,0.45,-67.21,-15.85,7.32,1.28,0.0,-0.09,1.07,1000
17:19:56.501,-4.47,0.44,-67.19,-10.85,6.04,1.59,-0.0,-0.1,1.07,1000
17:19:56.512,-4.64,0.44,-67.17,-5.06,4.63,1.65,0.0,-0.1,1.07,1000
17:19:56.523,-4.79,0.42,-67.16,0.43,2.74,1.65,-0.0,-0.1,1.08,1000
17:19:56.535,-4.87,0.41,-67.14,5.37,0.79,1.65,-0.01,-0.1,1.08,1000
17:19:56.545,-4.87,0.41,-67.12,9.33,-1.71,1.65,-0.01,-0.1,1.07,1000
17:19:56.556,-4.8,0.39,-67.1,12.13,-5.06,1.83,-0.0,-0.09,1.06,1000
17:19:56.569,-4.69,0.34,-67.08,13.41,-7.93,1.65,-0.01,-0.08,1.06,1000
17:19:56.578,-4.55,0.27,-67.06,13.72,-12.07,1.95,-0.0,-0.08,1.05,1000
17:19:56.589,-4.35,0.16,-67.04,12.87,-15.37,1.77,-0.0,-0.07,1.05,1000
17:19:56.600,-4.12,0.02,-67.02,10.85,-18.05,1.77,0.0,-0.07,1.04,1000
17:19:56.617,-3.93,-0.13,-67.0,8.66,-21.34,1.95,0.0,-0.06,1.03,1000
17:19:56.622,-3.77,-0.3,-66.97,6.4,-23.54,2.32,0.01,-0.05,1.03,1000
17:19:56.632,-3.59,-0.56,-66.95,2.74,-25.55,2.01,0.02,-0.05,1.02,1000
17:19:56.644,-3.39,-0.85,-66.93,-0.43,-26.77,1.83,0.02,-0.04,1.01,1000
17:19:56.655,-3.25,-1.15,-66.91,-3.96,-27.87,1.77,0.03,-0.04,1.01,1000
17:19:56.666,-3.16,-1.44,-66.89,-6.83,-28.78,1.89,0.03,-0.05,0.99,1000
17:19:56.677,-3.11,-1.73,-66.86,-9.63,-28.72,2.13,0.03,-0.05,0.99,1000
17:19:56.688,-3.12,-1.99,-66.84,-11.95,-27.44,2.99,0.04,-0.05,0.98,1000
17:19:56.703,-3.2,-2.23,-66.8,-13.66,-25.18,3.96,0.04,-0.06,0.98,1000
17:19:56.712,-3.31,-2.46,-66.75,-14.63,-21.65,4.88,0.05,-0.06,0.97,1000
17:19:56.723,-3.47,-2.63,-66.69,-15.0,-16.71,6.16,0.04,-0.07,0.97,1000
17:19:56.732,-3.66,-2.71,-66.62,-14.57,-11.52,6.22,0.04,-0.07,0.98,1000
17:19:56.743,-3.89,-2.69,-66.55,-12.99,-5.79,6.28,0.04,-0.08,0.99,1000
17:19:56.753,-4.14,-2.63,-66.49,-10.98,0.12,5.61,0.05,-0.08,0.99,1000
17:19:56.789,-4.34,-2.55,-66.42,-8.05,6.59,4.27,0.05,-0.08,1.0,1000
17:19:56.798,-4.45,-2.5,-66.39,-4.94,11.04,2.56,0.05,-0.08,1.0,1000
17:19:56.799,-4.49,-2.44,-66.37,-2.07,15.0,0.43,0.06,-0.08,1.0,1000
17:19:56.799,-4.46,-2.37,-66.38,1.28,18.96,-2.07,0.06,-0.07,1.01,1000
17:19:56.809,-4.34,-2.3,-66.41,3.6,22.32,-4.57,0.05,-0.06,1.01,1000
17:19:56.824,-4.13,-2.21,-66.48,6.4,25.12,-7.2,0.04,-0.06,1.02,1000
17:19:56.840,-3.97,-1.98,-66.56,8.35,27.01,-8.78,0.02,-0.08,1.02,1000
17:19:56.842,-3.9,-1.65,-66.66,10.37,27.87,-9.76,0.01,-0.09,1.03,1000
17:19:56.862,-3.9,-1.22,-66.77,12.07,27.8,-10.3,-0.01,-0.09,1.04,1000
17:19:56.870,-3.97,-0.72,-66.89,13.29,26.77,-10.06,-0.01,-0.09,1.04,1000
17:19:56.875,-4.05,-0.2,-67.0,14.21,25.43,-9.63,-0.02,-0.09,1.05,1000
17:19:56.886,-4.05,0.28,-67.1,14.21,23.9,-9.57,-0.03,-0.08,1.05,1000
17:19:56.896,-4.0,0.71,-67.21,13.54,22.8,-9.7,-0.03,-0.07,1.05,1000
17:19:56.908,-3.89,1.08,-67.31,11.95,21.59,-9.63,-0.02,-0.06,1.05,1000
17:19:56.919,-3.7,1.37,-67.42,10.73,20.61,-9.51,-0.02,-0.05,1.05,1000
17:19:56.929,-3.48,1.56,-67.51,9.15,19.45,-9.7,-0.03,-0.05,1.05,1000
17:19:56.941,-3.24,1.76,-67.63,7.01,17.93,-9.51,-0.04,-0.05,1.05,1000
17:19:56.952,-3.08,1.98,-67.73,5.43,16.1,-9.33,-0.04,-0.05,1.05,1000
17:19:56.962,-2.99,2.21,-67.83,4.15,14.33,-9.09,-0.05,-0.06,1.05,1000
17:19:56.974,-2.92,2.49,-67.94,2.26,11.83,-9.02,-0.08,-0.04,1.08,1000
17:19:56.984,-2.72,2.88,-68.03,-0.98,7.5,-8.41,-0.09,-0.02,1.06,1000
17:19:56.995,-2.35,3.32,-68.12,-3.23,3.6,-6.77,-0.1,0.01,1.09,1000
17:19:57.010,-1.99,3.64,-68.18,-5.49,0.24,-4.45,-0.1,0.03,1.08,1000
17:19:57.020,-1.38,3.99,-68.22,-7.01,-3.11,-2.01,-0.1,0.03,1.08,1000
17:19:57.030,-0.93,4.19,-68.23,-6.83,-4.57,-0.06,-0.08,0.02,1.07,1000
17:19:57.039,-0.58,4.27,-68.22,-6.34,-5.67,1.77,-0.07,0.0,1.06,1000
17:19:57.050,-0.37,4.25,-68.2,-5.0,-5.79,2.93,-0.06,-0.01,1.07,1000
17:19:57.062,-0.35,4.13,-68.16,-2.74,-5.79,3.84,-0.06,-0.03,1.06,1000
17:19:57.072,-0.49,3.97,-68.11,-0.06,-6.52,4.45,-0.05,-0.05,1.07,1000
17:19:57.083,-0.74,3.77,-68.06,2.62,-7.2,5.0,-0.05,-0.06,1.06,1000
17:19:57.094,-1.12,3.55,-68.0,5.0,-7.87,5.43,-0.05,-0.07,1.06,1000
17:19:57.107,-1.48,3.35,-67.94,6.83,-8.35,5.24,-0.04,-0.07,1.06,1000
17:19:57.119,-1.84,3.1,-67.89,8.48,-8.78,4.82,-0.03,-0.07,1.05,1000
17:19:57.132,-2.09,2.85,-67.84,9.39,-8.72,4.33,-0.03,-0.06,1.05,1000
17:19:57.139,-2.26,2.57,-67.79,9.51,-8.11,3.48,-0.02,-0.06,1.05,1000
17:19:57.149,-2.38,2.28,-67.76,9.51,-7.44,2.56,-0.02,-0.05,1.04,1000
17:19:57.160,-2.39,2.06,-67.74,9.45,-6.4,1.83,-0.02,-0.05,1.02,1000
17:19:57.172,-2.41,1.85,-67.72,9.09,-4.82,1.46,-0.02,-0.05,1.01,1000
17:19:57.183,-2.39,1.72,-67.71,9.02,-2.93,0.73,-0.03,-0.05,1.0,1000
17:19:57.193,-2.37,1.64,-67.7,9.27,-1.04,0.18,-0.02,-0.04,0.99,1000
17:19:57.205,-2.33,1.58,-67.7,9.27,1.1,-0.12,-0.03,-0.04,0.99,1000
17:19:57.215,-2.26,1.58,-67.7,8.41,2.62,-0.49,-0.02,-0.04,0.99,1000
17:19:57.226,-2.13,1.6,-67.71,7.56,3.78,-1.22,-0.02,-0.02,1.0,1000
17:19:57.237,-1.92,1.62,-67.73,6.16,4.51,-1.65,-0.02,-0.01,1.0,1000
17:19:57.248,-1.66,1.62,-67.75,4.15,5.06,-2.44,-0.02,-0.01,1.0,1000
17:19:57.259,-1.44,1.65,-67.78,1.89,4.76,-3.17,-0.03,-0.02,0.99,1000
17:19:57.271,-1.33,1.68,-67.82,-0.43,4.7,-4.33,-0.02,-0.02,0.99,1000
17:19:57.282,-1.35,1.69,-67.87,-2.62,4.76,-5.49,-0.03,-0.04,0.99,1000
17:19:57.294,-1.5,1.69,-67.94,-4.7,3.6,-6.83,-0.02,-0.05,0.99,1000
17:19:57.304,-1.72,1.67,-68.02,-7.2,1.77,-8.54,-0.02,-0.06,1.0,1000
17:19:57.318,-2.06,1.57,-68.12,-9.02,-0.06,-9.76,-0.01,-0.06,1.0,1000
17:19:57.327,-2.37,1.47,-68.24,-10.37,-1.46,-10.79,-0.01,-0.06,1.01,1000
17:19:57.337,-2.71,1.31,-68.36,-11.16,-2.68,-11.28,-0.01,-0.06,1.0,1000
17:19:57.347,-2.99,1.15,-68.48,-11.65,-3.35,-11.65,-0.01,-0.06,1.0,1000
17:19:57.359,-3.19,0.99,-68.61,-11.46,-2.99,-11.46,-0.0,-0.05,1.0,1000
17:19:57.371,-3.31,0.83,-68.73,-11.4,-1.59,-11.1,-0.0,-0.05,1.01,1000
17:19:57.380,-3.37,0.7,-68.85,-11.22,0.18,-10.73,-0.0,-0.05,1.0,1000
17:19:57.393,-3.41,0.61,-68.97,-10.43,1.77,-9.82,-0.01,-0.06,1.01,1000
17:19:57.403,-3.46,0.58,-69.07,-9.39,2.99,-8.6,-0.01,-0.06,1.0,1000
17:19:57.414,-3.52,0.6,-69.15,-8.17,4.02,-7.62,-0.02,-0.06,1.01,1000
17:19:57.430,-3.54,0.73,-69.23,-7.38,3.9,-6.22,-0.03,-0.05,1.02,1000
17:19:57.440,-3.47,0.92,-69.29,-7.13,2.5,-4.09,-0.05,-0.03,1.03,1000
17:19:57.446,-3.28,1.21,-69.32,-7.38,0.18,-1.4,-0.06,-0.02,1.04,1000
17:19:57.458,-2.94,1.63,-69.32,-7.2,-2.32,0.98,-0.07,-0.02,1.05,1000
17:19:57.469,-2.69,1.99,-69.3,-7.01,-4.21,3.48,-0.08,-0.03,1.06,1000
17:19:57.479,-2.48,2.36,-69.25,-6.59,-5.79,5.18,-0.07,-0.04,1.07,1000
17:19:57.490,-2.39,2.59,-69.19,-5.67,-7.01,6.46,-0.06,-0.05,1.07,1000
17:19:57.501,-2.39,2.73,-69.12,-4.39,-7.68,6.71,-0.05,-0.06,1.07,1000
17:19:57.513,-2.5,2.75,-69.04,-2.62,-8.23,6.4,-0.05,-0.06,1.06,1000
17:19:57.523,-2.64,2.66,-68.98,-1.1,-8.66,5.49,-0.03,-0.07,1.07,1000
17:19:57.537,-2.82,2.48,-68.92,0.49,-8.17,4.15,-0.02,-0.07,1.06,1000
17:19:57.545,-2.98,2.23,-68.88,1.77,-6.95,2.74,-0.01,-0.07,1.06,1000
17:19:57.556,-3.09,1.95,-68.86,2.5,-5.55,1.1,-0.01,-0.06,1.06,1000
17:19:57.567,-3.16,1.68,-68.86,2.2,-4.02,-0.61,-0.01,-0.06,1.06,1000
17:19:57.578,-3.18,1.43,-68.87,1.34,-2.93,-1.89,-0.01,-0.06,1.06,1000
17:19:57.589,-3.16,1.22,-68.9,0.12,-1.83,-2.8,-0.01,-0.05,1.06,1000
17:19:57.601,-3.13,1.02,-68.94,-1.59,-1.04,-3.72,-0.0,-0.06,1.05,1000
17:19:57.615,-3.14,0.87,-68.98,-2.99,-0.67,-4.21,-0.0,-0.05,1.06,1000
17:19:57.625,-3.15,0.76,-69.03,-4.15,0.24,-4.39,-0.0,-0.06,1.05,1000
17:19:57.646,-3.2,0.64,-69.08,-4.82,1.04,-4.27,-0.0,-0.06,1.05,1000
17:19:57.647,-3.27,0.55,-69.12,-4.39,1.52,-4.21,0.0,-0.06,1.05,1000
17:19:57.656,-3.36,0.44,-69.17,-3.72,2.26,-4.21,0.0,-0.07,1.05,1000
17:19:57.667,-3.45,0.33,-69.22,-2.07,3.05,-4.15,0.0,-0.07,1.05,1000
17:19:57.678,-3.53,0.26,-69.26,-0.24,3.48,-3.96,0.0,-0.07,1.05,1000
17:19:57.689,-3.58,0.23,-69.31,1.65,3.48,-4.02,-0.01,-0.07,1.05,1000
17:19:57.700,-3.61,0.25,-69.35,3.6,3.23,-3.6,-0.01,-0.07,1.05,1000
17:19:57.711,-3.61,0.31,-69.39,5.73,2.2,-3.17,-0.02,-0.07,1.04,1000
17:19:57.722,-3.6,0.4,-69.42,7.74,1.4,-3.17,-0.02,-0.07,1.05,1000
17:19:57.748,-3.55,0.54,-69.46,9.76,0.79,-3.05,-0.02,-0.07,1.04,1000
17:19:57.750,-3.47,0.67,-69.49,11.22,0.3,-2.56,-0.02,-0.06,1.04,1000
17:19:57.756,-3.35,0.79,-69.51,11.77,0.06,-1.89,-0.03,-0.06,1.03,1000
17:19:57.766,-3.21,0.92,-69.53,12.2,0.49,-1.22,-0.03,-0.05,1.02,1000
17:19:57.777,-3.06,1.06,-69.54,12.07,1.28,-0.85,-0.03,-0.05,1.01,1000
17:19:57.824,-2.89,1.2,-69.55,11.34,1.52,-0.12,-0.03,-0.04,1.0,1000
17:19:57.825,-2.73,1.34,-69.55,10.55,1.4,0.18,-0.03,-0.04,1.0,1000
17:19:57.829,-2.61,1.45,-69.55,9.39,0.79,0.06,-0.03,-0.05,0.99,1000
17:19:57.830,-2.53,1.53,-69.55,8.17,-0.98,0.18,-0.03,-0.05,0.99,1000
17:19:57.832,-2.49,1.58,-69.55,6.95,-3.35,0.24,-0.03,-0.05,0.99,1000
17:19:57.850,-2.49,1.6,-69.55,5.98,-7.38,0.0,-0.03,-0.06,0.99,1000
17:19:57.853,-2.52,1.54,-69.55,5.37,-13.05,-0.12,-0.03,-0.06,0.99,1000
17:19:57.865,-2.62,1.42,-69.55,5.24,-20.37,0.06,-0.02,-0.06,1.0,1000
17:19:57.875,-2.73,1.22,-69.55,4.82,-29.7,0.3,-0.02,-0.06,1.01,1000
17:19:57.889,-2.85,0.97,-69.54,4.33,-40.37,0.85,-0.03,-0.06,1.02,1000
17:19:57.898,-2.95,0.63,-69.53,3.11,-52.87,1.4,-0.02,-0.06,1.03,1000
17:19:57.911,-2.99,0.25,-69.51,1.65,-64.39,2.26,-0.0,-0.05,1.04,1000
17:19:57.920,-3.0,-0.41,-69.48,0.12,-78.29,3.35,0.01,-0.06,1.04,1000
17:19:57.931,-3.03,-1.15,-69.43,-0.43,-90.12,4.76,0.03,-0.06,1.03,1000
17:19:57.942,-3.08,-2.03,-69.38,0.79,-100.3,6.52,0.05,-0.06,1.01,1000
17:19:57.953,-3.08,-3.03,-69.29,3.48,-111.59,9.39,0.06,-0.04,1.0,1000
17:19:57.964,-2.9,-4.07,-69.17,5.55,-121.59,12.8,0.07,-0.02,0.99,1000
17:19:57.975,-2.58,-5.22,-69.01,5.85,-129.39,16.1,0.09,-0.01,0.96,1000
17:19:57.986,-2.15,-6.39,-68.82,3.6,-133.29,18.23,0.1,0.01,0.94,1000
17:19:57.997,-1.7,-7.64,-68.62,-2.99,-135.91,19.15,0.16,0.03,0.92,1000
17:19:58.008,-1.13,-9.14,-68.41,-13.41,-132.2,18.9,0.21,0.04,0.91,1000
17:19:58.019,-0.58,-10.89,-68.2,-24.88,-125.18,18.29,0.25,0.05,0.88,1000
17:19:58.032,-0.21,-12.77,-68.0,-38.23,-117.38,18.29,0.29,0.04,0.86,1000
17:19:58.054,-0.09,-14.65,-67.8,-50.55,-108.9,19.63,0.32,0.02,0.81,1000
17:19:58.055,-0.17,-16.67,-67.57,-60.85,-99.39,22.44,0.33,-0.01,0.79,1000
17:19:58.064,-0.59,-18.47,-67.33,-70.61,-90.61,26.1,0.33,-0.05,0.79,1000
17:19:58.074,-1.61,-20.1,-67.02,-79.76,-81.71,31.22,0.33,-0.1,0.77,1000
17:19:58.085,-3.42,-21.57,-66.61,-87.68,-72.93,36.52,0.35,-0.15,0.8,1000
17:19:58.096,-5.59,-22.65,-66.2,-94.27,-65.18,39.33,0.36,-0.2,0.81,1000
17:19:58.107,-7.79,-23.32,-65.77,-106.16,-63.29,37.74,0.37,-0.28,0.89,1000
17:19:58.118,-10.34,-23.94,-65.36,-117.68,-60.37,39.09,0.41,-0.23,0.88,1000
17:19:58.129,-12.3,-24.62,-64.91,-123.96,-55.55,42.74,0.41,-0.28,0.9,1000
17:19:58.140,-13.99,-25.12,-64.42,-127.74,-50.3,48.11,0.41,-0.28,0.91,1000
17:19:58.157,-15.57,-25.45,-63.88,-127.93,-42.2,51.34,0.42,-0.33,0.91,1000
17:19:58.161,-17.07,-25.53,-63.35,-129.51,-37.56,54.7,0.43,-0.37,0.93,1000
17:19:58.172,-18.88,-25.4,-62.67,-131.04,-33.48,58.41,0.38,-0.4,0.94,1000
17:19:58.184,-20.6,-24.95,-62.02,-130.3,-31.34,60.61,0.39,-0.43,0.94,1000
17:19:58.195,-22.31,-24.34,-61.34,-127.99,-29.15,63.11,0.37,-0.43,0.95,1000
17:19:58.207,-23.61,-23.75,-60.6,-118.48,-25.55,72.99,0.38,-0.4,0.9,1000
17:19:58.216,-24.74,-23.75,-59.72,-67.56,18.17,85.06,0.44,-0.43,0.63,1000
17:19:58.231,-25.69,-23.66,-58.75,-28.29,50.12,92.38,0.45,-0.53,0.95,1000
17:19:58.239,-26.11,-22.84,-57.71,8.78,75.37,96.52,0.44,-0.6,0.77,1000
17:19:58.251,-26.08,-20.98,-56.66,-5.85,38.23,95.91,0.17,-0.42,1.45,1000
17:19:58.261,-24.93,-18.57,-55.58,-34.76,4.63,101.04,0.15,-0.23,1.04,1000
17:19:58.272,-24.13,-16.93,-54.44,-10.3,11.34,104.39,0.45,-0.45,0.9,1000
17:19:58.283,-23.85,-16.02,-53.3,12.01,18.29,101.4,0.4,-0.46,1.12,1000
17:19:58.294,-23.24,-15.16,-52.24,40.12,34.21,92.62,0.36,-0.52,1.03,1000
17:19:58.323,-22.81,-14.78,-51.24,65.61,39.39,88.48,0.43,-0.54,1.17,1000
17:19:58.323,-22.14,-14.5,-50.28,79.57,48.9,83.6,0.35,-0.43,1.08,1000
17:19:58.327,-21.41,-14.21,-49.48,93.84,50.43,75.49,0.26,-0.46,1.13,1000
17:19:58.342,-20.39,-13.62,-48.62,105.43,53.66,70.91,0.4,-0.38,1.03,1000
17:19:58.353,-19.38,-13.17,-47.83,108.96,61.34,70.18,0.11,-0.36,1.17,1000
17:19:58.365,-18.65,-11.85,-47.11,124.7,44.15,63.35,0.09,-0.54,1.0,1000
17:19:58.373,-18.38,-10.58,-46.49,145.3,24.15,60.37,0.13,-0.48,1.21,1000
17:19:58.381,-17.86,-9.11,-45.79,158.84,8.41,55.37,0.14,-0.42,1.09,1000
17:19:58.392,-17.16,-8.15,-45.2,164.45,-4.15,51.52,0.15,-0.36,1.16,1000
17:19:58.403,-15.98,-7.85,-44.67,166.71,-16.4,43.84,0.2,-0.33,1.1,1000
17:19:58.420,-14.53,-8.23,-44.22,160.49,-23.05,37.01,0.27,-0.22,1.14,1000
17:19:58.425,-12.82,-9.0,-43.85,151.95,-28.66,30.73,0.26,-0.22,1.09,1000
17:19:58.436,-11.19,-9.99,-43.54,143.23,-36.77,26.22,0.32,-0.16,1.09,1000
17:19:58.467,-9.41,-11.35,-43.26,130.73,-43.54,22.68,0.31,-0.08,1.03,1000
17:19:58.468,-7.8,-12.58,-43.05,117.26,-51.89,20.3,0.29,-0.08,1.05,1000
17:19:58.470,-6.34,-13.57,-42.83,99.51,-61.22,19.51,0.26,-0.06,1.02,1000
17:19:58.481,-5.01,-14.35,-42.6,79.76,-72.32,19.27,0.23,-0.05,1.01,1000
17:19:58.492,-3.95,-14.76,-42.38,61.95,-82.56,20.73,0.22,-0.03,1.03,1000
17:19:58.503,-3.08,-14.98,-42.14,47.38,-91.95,23.23,0.2,-0.01,1.0,1000
17:19:58.514,-2.43,-15.11,-41.9,36.83,-101.34,25.91,0.22,-0.02,1.04,1000
17:19:58.525,-1.91,-15.35,-41.59,27.5,-109.7,30.85,0.21,-0.03,1.01,1000
17:19:58.536,-1.52,-15.75,-41.2,23.48,-118.96,35.73,0.22,-0.03,1.02,1000
17:19:58.547,-1.33,-15.9,-40.78,22.44,-126.16,41.16,0.22,-0.04,1.01,1000
17:19:58.564,-1.36,-16.11,-40.3,25.18,-133.05,45.3,0.23,-0.07,1.02,1000
17:19:58.568,-1.52,-16.6,-39.78,31.95,-140.3,49.94,0.25,-0.1,1.01,1000
17:19:58.579,-1.87,-17.12,-39.21,39.94,-146.1,55.12,0.28,-0.1,1.02,1000
17:19:58.590,-2.14,-17.92,-38.58,49.88,-151.59,59.94,0.31,-0.11,1.01,1000
17:19:58.603,-2.45,-18.77,-37.9,58.54,-154.63,64.27,0.34,-0.1,1.01,1000
17:19:58.614,-2.51,-19.86,-37.18,65.61,-157.99,66.65,0.36,-0.09,0.98,1000
17:19:58.625,-2.49,-21.08,-36.44,72.13,-163.11,68.17,0.41,-0.08,0.95,1000
17:19:58.635,-2.35,-22.68,-35.68,76.89,-167.2,70.12,0.46,-0.07,0.92,1000
17:19:58.648,-2.04,-24.67,-34.89,82.5,-171.77,72.5,0.51,-0.07,0.88,1000
17:19:58.668,-1.73,-26.9,-34.1,88.23,-175.43,72.07,0.56,-0.06,0.88,1000
17:19:58.668,-1.45,-29.18,-33.31,89.88,-172.62,69.33,0.53,-0.07,0.83,1000
17:19:58.680,-1.32,-31.31,-32.57,89.94,-172.56,63.78,0.56,-0.11,0.76,1000
17:19:58.690,-1.38,-33.34,-31.94,91.28,-173.41,59.88,0.62,-0.09,0.72,1000
17:19:58.706,-1.37,-35.82,-31.27,92.62,-169.02,52.07,0.67,-0.12,0.74,1000
17:19:58.722,-1.59,-37.99,-30.78,92.38,-165.37,44.7,0.7,-0.08,0.68,1000
17:19:58.731,-1.86,-40.94,-30.29,88.11,-158.11,36.46,0.78,-0.07,0.64,1000
17:19:58.734,-1.99,-43.55,-29.96,78.17,-147.99,31.16,0.75,-0.11,0.57,1000
17:19:58.750,-2.3,-46.2,-29.66,66.83,-141.22,24.15,0.75,-0.11,0.52,1000
17:19:58.765,-2.62,-49.17,-29.38,56.28,-135.37,19.15,0.82,-0.07,0.47,1000
17:19:58.771,-2.86,-51.75,-29.18,47.93,-123.78,18.48,0.8,-0.06,0.45,1000
17:19:58.777,-3.11,-54.12,-29.01,36.89,-115.98,14.15,0.75,-0.08,0.45,1000
17:19:58.789,-3.51,-56.39,-28.86,30.55,-104.39,11.34,0.84,-0.09,0.46,1000
17:19:58.799,-3.9,-58.13,-28.74,27.26,-90.18,10.0,0.83,-0.08,0.44,1000
17:19:58.810,-4.06,-59.53,-28.67,24.63,-76.52,6.16,0.83,-0.14,0.54,1000
17:19:58.823,-4.06,-60.42,-28.61,19.7,-64.94,4.15,0.93,-0.07,0.44,1000
17:19:58.832,-3.99,-61.14,-28.56,18.35,-47.2,2.62,0.89,-0.06,0.51,1000
17:19:58.844,-3.89,-61.56,-28.53,16.34,-37.32,3.48,0.78,-0.06,0.4,1000
17:19:58.854,-3.76,-61.89,-28.5,16.4,-32.2,1.1,0.82,-0.02,0.48,1000
17:19:58.865,-3.63,-61.89,-28.48,15.73,-25.0,1.04,0.86,0.02,0.41,1000
17:19:58.876,-3.52,-61.95,-28.48,20.18,-19.15,-0.43,0.83,-0.0,0.5,1000
17:19:58.887,-3.43,-61.81,-28.49,19.76,-16.89,-2.44,0.83,0.0,0.41,1000
17:19:58.899,-3.19,-61.85,-28.54,22.26,-13.9,-4.94,0.85,0.0,0.52,1000
17:19:58.909,-2.93,-61.69,-28.6,20.98,-12.8,-7.44,0.83,-0.01,0.4,1000
17:19:58.920,-2.61,-61.83,-28.69,19.15,-13.6,-8.96,0.83,0.0,0.48,1000
17:19:58.932,-2.21,-61.9,-28.8,13.78,-12.01,-10.06,0.84,0.02,0.41,1000
17:19:58.942,-1.71,-62.1,-28.91,8.9,-10.0,-9.33,0.84,0.02,0.46,1000
17:19:58.955,-1.35,-62.12,-29.0,4.88,-7.56,-8.66,0.85,0.03,0.44,1000
17:19:58.967,-0.98,-62.09,-29.09,2.32,-4.27,-7.07,0.84,0.02,0.48,1000
17:19:58.976,-0.6,-61.88,-29.16,-0.67,-0.91,-4.7,0.84,0.03,0.46,1000
17:19:58.986,-0.34,-61.66,-29.2,-1.34,1.95,-2.62,0.85,0.04,0.48,1000
17:19:58.997,0.01,-61.42,-29.21,-2.93,4.45,0.06,0.84,0.04,0.46,1000
17:19:59.009,0.31,-61.21,-29.2,-4.51,6.22,2.2,0.84,0.04,0.47,1000
17:19:59.019,0.52,-61.03,-29.17,-5.98,7.87,3.96,0.84,0.04,0.45,1000
17:19:59.032,0.68,-60.94,-29.12,-6.46,8.84,5.43,0.85,0.03,0.47,1000
17:19:59.042,0.74,-60.87,-29.06,-6.59,9.82,5.91,0.86,0.03,0.46,1000
17:19:59.058,0.76,-60.81,-28.99,-5.85,10.49,6.34,0.86,0.03,0.49,1000
17:19:59.065,0.74,-60.65,-28.92,-5.06,11.65,6.22,0.86,0.02,0.5,1000
17:19:59.075,0.7,-60.33,-28.85,-4.09,12.74,6.52,0.84,0.01,0.51,1000
17:19:59.085,0.58,-59.96,-28.78,-3.72,13.48,6.46,0.85,0.01,0.51,1000
17:19:59.096,0.44,-59.6,-28.71,-4.39,13.6,6.16,0.86,0.02,0.51,1000
17:19:59.107,0.32,-59.34,-28.64,-4.45,13.05,5.12,0.87,0.01,0.52,1000
17:19:59.118,0.21,-59.11,-28.59,-4.7,12.07,3.84,0.88,0.01,0.54,1000
17:19:59.129,0.12,-58.88,-28.56,-4.21,10.3,2.68,0.88,0.0,0.55,1000
17:19:59.140,0.01,-58.57,-28.53,-3.05,8.41,2.07,0.87,0.0,0.56,1000
17:19:59.151,-0.07,-58.27,-28.51,-2.13,6.77,1.77,0.86,0.0,0.56,1000
17:19:59.167,-0.16,-57.87,-28.49,-0.49,5.0,1.71,0.85,0.0,0.57,1000
17:19:59.174,-0.2,-57.54,-28.48,0.67,4.09,1.77,0.85,0.01,0.56,1000
17:19:59.195,-0.2,-57.24,-28.46,2.13,3.17,1.71,0.86,0.01,0.56,1000
17:19:59.195,-0.15,-57.07,-28.44,3.78,2.5,1.52,0.86,0.01,0.56,1000
17:19:59.206,-0.1,-57.0,-28.42,5.24,1.77,1.52,0.87,0.01,0.55,1000
17:19:59.217,0.01,-57.02,-28.41,7.5,-0.18,1.4,0.87,0.02,0.55,1000
17:19:59.228,0.18,-57.07,-28.39,8.84,-2.07,1.34,0.86,0.03,0.54,1000
17:19:59.239,0.37,-57.12,-28.38,9.57,-3.66,1.34,0.85,0.03,0.54,1000
17:19:59.251,0.57,-57.16,-28.36,9.21,-4.51,1.46,0.85,0.02,0.54,1000
17:19:59.262,0.68,-57.21,-28.34,8.84,-4.82,1.77,0.85,0.02,0.53,1000
17:19:59.274,0.78,-57.35,-28.32,7.93,-4.45,1.95,0.87,0.02,0.53,1000
17:19:59.291,0.84,-57.54,-28.3,7.38,-4.27,1.65,0.88,0.02,0.53,1000
17:19:59.296,0.85,-57.75,-28.28,6.71,-3.96,1.34,0.87,0.02,0.53,1000
17:19:59.305,0.85,-57.94,-28.27,5.98,-3.66,0.67,0.87,0.02,0.53,1000
17:19:59.316,0.84,-58.11,-28.27,5.18,-3.11,0.18,0.87,0.01,0.53,1000
17:19:59.327,0.8,-58.22,-28.27,4.63,-2.56,-0.12,0.87,0.01,0.52,1000
17:19:59.342,0.76,-58.33,-28.27,4.02,-1.46,-0.73,0.87,0.02,0.53,1000
17:19:59.353,0.71,-58.38,-28.28,3.35,0.37,-0.85,0.87,0.02,0.52,1000
17:19:59.363,0.68,-58.44,-28.29,2.68,2.07,-1.22,0.87,0.02,0.53,1000
17:19:59.382,0.65,-58.43,-28.31,2.2,3.11,-1.1,0.87,0.02,0.53,1000
17:19:59.382,0.66,-58.42,-28.32,2.38,3.72,-1.16,0.86,0.02,0.54,1000
17:19:59.393,0.71,-58.33,-28.33,1.52,3.9,-0.55,0.86,0.02,0.53,1000
17:19:59.405,0.74,-58.24,-28.33,1.04,3.84,-0.18,0.85,0.02,0.54,1000
17:19:59.415,0.79,-58.15,-28.33,0.24,3.48,0.06,0.86,0.03,0.52,1000
17:19:59.426,0.85,-58.14,-28.33,-0.37,3.48,0.24,0.86,0.03,0.53,1000
17:19:59.437,0.91,-58.2,-28.33,-0.43,3.54,0.12,0.87,0.03,0.52,1000
17:19:59.448,0.96,-58.28,-28.33,0.55,4.15,-0.24,0.87,0.03,0.53,1000
17:19:59.466,1.0,-58.3,-28.33,1.4,4.94,-0.37,0.87,0.02,0.54,1000
17:19:59.471,1.02,-58.24,-28.33,3.23,5.49,0.49,0.86,0.02,0.54,1000
17:19:59.488,1.05,-58.12,-28.32,4.33,5.43,0.98,0.85,0.03,0.55,1000
17:19:59.492,1.11,-57.96,-28.31,4.82,4.94,1.4,0.86,0.03,0.55,1000
17:19:59.506,1.17,-57.79,-28.29,4.57,4.02,2.26,0.85,0.03,0.54,1000
17:19:59.514,1.22,-57.64,-28.26,3.48,3.48,2.44,0.86,0.03,0.55,1000
17:19:59.526,1.23,-57.54,-28.23,2.38,2.62,2.38,0.86,0.02,0.55,1000
17:19:59.539,1.19,-57.48,-28.21,1.1,1.22,1.89,0.86,0.02,0.54,1000
17:19:59.556,1.13,-57.5,-28.19,0.18,0.55,1.16,0.87,0.02,0.54,1000
17:19:59.561,1.05,-57.56,-28.19,-0.43,0.24,0.49,0.87,0.02,0.54,1000
17:19:59.570,0.95,-57.6,-28.18,-0.73,0.73,-0.18,0.87,0.01,0.55,1000
17:19:59.582,0.83,-57.65,-28.19,-0.49,1.22,-0.67,0.87,0.01,0.55,1000
17:19:59.591,0.73,-57.66,-28.19,0.24,2.38,-0.61,0.87,0.01,0.55,1000
17:19:59.602,0.67,-57.63,-28.2,0.73,2.99,-0.37,0.86,0.01,0.55,1000
17:19:59.613,0.64,-57.58,-28.2,1.28,2.8,0.18,0.86,0.02,0.55,1000
17:19:59.624,0.64,-57.52,-28.2,1.16,2.87,0.61,0.86,0.02,0.54,1000
17:19:59.635,0.65,-57.47,-28.19,0.67,2.68,0.67,0.85,0.02,0.54,1000
17:19:59.646,0.66,-57.44,-28.18,0.06,2.01,0.73,0.85,0.02,0.54,1000
17:19:59.659,0.64,-57.44,-28.17,-0.73,1.52,0.85,0.86,0.02,0.54,1000
17:19:59.671,0.6,-57.46,-28.16,-1.04,1.1,0.3,0.86,0.01,0.54,1000
17:19:59.682,0.57,-57.49,-28.16,-0.85,0.37,-0.12,0.86,0.01,0.54,1000
17:19:59.695,0.52,-57.51,-28.16,0.37,-0.61,-0.43,0.85,0.01,0.54,1000
17:19:59.701,0.48,-57.49,-28.17,1.4,-0.79,-0.79,0.85,0.01,0.55,1000
17:19:59.713,0.45,-57.45,-28.18,2.38,-1.04,-0.85,0.85,0.0,0.54,1000
17:19:59.723,0.4,-57.41,-28.19,3.72,-1.16,-1.1,0.85,0.01,0.54,1000
17:19:59.734,0.39,-57.42,-28.2,4.45,-1.16,-0.91,0.85,0.01,0.54,1000
17:19:59.746,0.4,-57.48,-28.21,4.39,-1.22,-0.67,0.85,0.01,0.53,1000
17:19:59.756,0.4,-57.57,-28.22,3.72,-0.79,-0.67,0.85,0.01,0.52,1000
17:19:59.767,0.41,-57.7,-28.23,2.38,-0.24,-0.91,0.85,0.01,0.52,1000
17:19:59.792,0.4,-57.8,-28.24,0.67,0.98,-1.34,0.85,0.01,0.52,1000
17:19:59.794,0.38,-57.98,-28.25,-1.34,2.07,-1.77,0.87,0.01,0.51,1000
17:19:59.801,0.35,-58.14,-28.28,-2.68,3.17,-2.62,0.86,0.01,0.52,1000
17:19:59.813,0.31,-58.23,-28.31,-3.41,4.57,-3.23,0.85,0.01,0.53,1000
17:19:59.824,0.27,-58.26,-28.34,-3.23,5.49,-2.74,0.87,0.0,0.53,1000
17:19:59.833,0.22,-58.25,-28.37,-2.32,6.34,-2.32,0.86,0.01,0.54,1000
17:19:59.846,0.19,-58.15,-28.4,-1.83,7.2,-2.5,0.86,0.01,0.54,1000
17:19:59.855,0.2,-58.04,-28.42,-1.4,7.8,-2.74,0.86,0.01,0.54,1000
17:19:59.868,0.22,-57.91,-28.46,-0.91,7.5,-2.8,0.86,0.02,0.54,1000
17:19:59.878,0.28,-57.8,-28.49,-0.79,7.26,-3.11,0.85,0.02,0.55,1000
17:19:59.889,0.38,-57.63,-28.52,-1.1,6.52,-3.05,0.85,0.02,0.55,1000
17:19:59.899,0.46,-57.45,-28.55,-1.34,5.12,-2.99,0.84,0.02,0.56,1000
17:19:59.910,0.52,-57.25,-28.58,-1.59,3.54,-2.87,0.84,0.02,0.56,1000
17:19:59.921,0.63,-56.99,-28.62,-1.71,2.2,-2.5,0.84,0.02,0.57,1000
17:19:59.935,0.72,-56.76,-28.64,-1.77,1.04,-2.13,0.84,0.02,0.57,1000
17:19:59.943,0.79,-56.58,-28.66,-1.16,0.24,-1.89,0.85,0.03,0.57,1000
17:19:59.955,0.9,-56.43,-28.68,-0.67,-0.12,-1.83,0.86,0.03,0.58,1000
17:19:59.966,1.02,-56.31,-28.7,0.0,-0.49,-1.59,0.86,0.03,0.57,1000
17:19:59.977,1.11,-56.24,-28.72,0.79,-0.73,-1.34,0.85,0.03,0.57,1000
17:19:59.992,1.15,-56.22,-28.73,1.1,-1.22,-1.1,0.85,0.03,0.57,1000
17:20:00.001,1.23,-56.21,-28.74,1.04,-1.59,-0.79,0.85,0.03,0.57,1000
17:20:00.009,1.3,-56.24,-28.75,0.79,-1.59,-0.98,0.86,0.03,0.56,1000
17:20:00.020,1.36,-56.3,-28.76,0.24,-1.95,-1.1,0.86,0.03,0.56,1000
17:20:00.031,1.45,-56.44,-28.78,-0.12,-2.56,-1.4,0.86,0.03,0.55,1000
17:20:00.042,1.52,-56.59,-28.79,-0.06,-2.74,-1.77,0.86,0.03,0.56,1000
17:20:00.053,1.56,-56.72,-28.82,-0.49,-3.11,-2.68,0.86,0.03,0.55,1000
17:20:00.065,1.59,-56.87,-28.85,-0.37,-2.99,-2.93,0.86,0.03,0.55,1000
17:20:00.076,1.62,-57.04,-28.88,-0.37,-2.68,-3.17,0.87,0.04,0.54,1000
17:20:00.091,1.67,-57.2,-28.92,-0.18,-2.07,-3.6,0.86,0.04,0.54,1000
17:20:00.097,1.72,-57.32,-28.96,-0.12,-1.52,-3.29,0.86,0.04,0.54,1000
17:20:00.110,1.78,-57.42,-29.0,-0.49,-0.43,-3.11,0.85,0.04,0.54,1000
17:20:00.120,1.84,-57.47,-29.03,-0.98,0.37,-2.62,0.85,0.04,0.53,1000
17:20:00.130,1.89,-57.49,-29.05,-1.59,1.4,-1.89,0.84,0.03,0.54,1000
17:20:00.142,1.91,-57.51,-29.07,-2.01,2.26,-1.34,0.85,0.04,0.53,1000
17:20:00.153,1.93,-57.54,-29.08,-2.62,3.48,-1.1,0.85,0.04,0.54,1000
17:20:00.164,1.91,-57.54,-29.09,-3.29,4.45,-1.04,0.85,0.03,0.54,1000
17:20:00.176,1.88,-57.52,-29.1,-3.41,5.12,-0.85,0.85,0.03,0.54,1000
17:20:00.185,1.82,-57.47,-29.11,-2.87,5.12,-0.55,0.84,0.03,0.54,1000
17:20:00.201,1.76,-57.39,-29.12,-2.26,5.0,-0.61,0.84,0.03,0.54,1000
17:20:00.207,1.71,-57.27,-29.12,-1.4,4.7,-0.49,0.83,0.03,0.55,1000
17:20:00.219,1.67,-57.12,-29.13,-0.98,4.82,-0.49,0.83,0.03,0.55,1000
17:20:00.230,1.63,-56.97,-29.14,-0.67,5.18,-0.55,0.83,0.02,0.55,1000
17:20:00.240,1.59,-56.84,-29.14,-0.49,5.61,-0.49,0.83,0.02,0.55,1000
17:20:00.251,1.53,-56.73,-29.15,-0.37,5.61,-0.61,0.84,0.02,0.55,1000
17:20:00.263,1.46,-56.62,-29.16,-0.49,5.37,-0.61,0.84,0.02,0.56,1000
17:20:00.273,1.41,-56.51,-29.17,-0.49,4.94,-1.22,0.84,0.02,0.57,1000
17:20:00.285,1.36,-56.39,-29.18,-0.37,4.09,-1.28,0.84,0.03,0.57,1000
17:20:00.299,1.34,-56.27,-29.19,0.0,3.78,-1.16,0.84,0.02,0.58,1000
17:20:00.307,1.33,-56.09,-29.2,0.18,2.74,-0.91,0.84,0.03,0.58,1000
17:20:00.317,1.33,-55.91,-29.21,0.12,2.07,-0.61,0.83,0.02,0.58,1000
17:20:00.328,1.29,-55.72,-29.22,-0.3,1.34,-0.73,0.83,0.01,0.57,1000
17:20:00.340,1.21,-55.63,-29.23,-0.98,1.16,-0.91,0.85,0.02,0.57,1000
17:20:00.350,1.14,-55.66,-29.24,-1.34,0.67,-1.71,0.86,0.02,0.56,1000
17:20:00.362,1.09,-55.8,-29.27,-0.98,0.67,-2.8,0.86,0.02,0.56,1000
17:20:00.374,1.04,-55.98,-29.3,-0.73,1.28,-4.09,0.85,0.02,0.55,1000
17:20:00.383,1.01,-56.14,-29.35,-0.49,2.32,-4.63,0.85,0.02,0.55,1000
17:20:00.401,1.01,-56.26,-29.4,-0.24,3.29,-5.0,0.85,0.02,0.55,1000
17:20:00.409,1.04,-56.36,-29.46,-0.12,4.88,-5.37,0.84,0.03,0.54,1000
17:20:00.416,1.1,-56.5,-29.52,-0.3,6.04,-5.61,0.84,0.03,0.53,1000
17:20:00.427,1.18,-56.69,-29.58,-0.73,7.44,-5.73,0.84,0.03,0.51,1000
17:20:00.438,1.27,-56.97,-29.65,-1.65,9.09,-6.52,0.84,0.03,0.48,1000
17:20:00.449,1.33,-57.39,-29.72,-3.48,11.95,-7.38,0.84,0.03,0.45,1000
17:20:00.460,1.42,-58.16,-29.81,-7.68,18.6,-9.15,0.86,0.04,0.43,1000
17:20:00.476,1.49,-58.95,-29.92,-12.93,28.66,-10.98,0.88,0.05,0.41,1000
17:20:00.482,1.58,-59.77,-30.05,-17.56,40.24,-12.26,0.88,0.06,0.4,1000
17:20:00.494,1.69,-60.39,-30.18,-22.56,55.12,-12.68,0.89,0.07,0.4,1000
17:20:00.510,1.83,-60.77,-30.31,-27.38,68.72,-12.32,0.88,0.08,0.4,1000
17:20:00.515,2.06,-60.91,-30.45,-33.72,85.79,-11.1,0.86,0.09,0.42,1000
17:20:00.526,2.51,-60.84,-30.56,-39.45,101.16,-9.15,0.83,0.09,0.42,1000
17:20:00.537,2.73,-60.32,-30.64,-44.7,114.21,-6.83,0.82,0.09,0.45,1000
17:20:00.548,2.93,-59.49,-30.71,-48.96,128.41,-4.51,0.82,0.11,0.46,1000
17:20:00.559,3.02,-58.28,-30.75,-49.27,148.48,-1.71,0.77,0.09,0.5,1000
17:20:00.571,3.1,-56.82,-30.76,-47.99,162.99,0.0,0.75,0.06,0.52,1000
17:20:00.585,2.93,-55.2,-30.74,-42.2,178.66,5.18,0.71,0.04,0.51,1000
17:20:00.592,2.79,-53.52,-30.68,-39.57,193.35,6.04,0.65,0.07,0.53,1000
17:20:00.606,2.75,-51.33,-30.62,-35.85,209.15,5.3,0.64,0.08,0.55,1000
17:20:00.615,2.69,-48.81,-30.55,-30.55,228.11,5.3,0.61,0.03,0.62,1000
17:20:00.625,2.58,-46.24,-30.49,-23.48,244.82,4.15,0.56,0.04,0.63,1000
17:20:00.637,2.49,-43.21,-30.47,-15.43,261.95,-0.73,0.5,0.01,0.69,1000
17:20:00.647,2.35,-39.53,-30.51,-5.91,276.83,-7.68,0.46,0.02,0.73,1000
17:20:00.658,2.2,-35.82,-30.64,6.16,292.38,-15.91,0.42,-0.01,0.77,1000
17:20:00.670,1.99,-31.97,-30.85,20.73,302.87,-23.78,0.35,-0.02,0.77,1000
17:20:00.692,1.8,-27.87,-31.16,38.72,309.57,-31.71,0.28,-0.02,0.79,1000
17:20:00.692,1.79,-23.7,-31.54,56.65,314.33,-38.48,0.21,-0.01,0.79,1000
17:20:00.711,1.9,-19.36,-31.99,71.04,317.13,-43.41,0.13,-0.01,0.81,1000
17:20:00.714,2.04,-14.41,-32.49,81.95,319.39,-48.17,0.04,0.01,0.81,1000
